thisRow.t,notes,trial_type,trial_number,target_index,selected_id,correct,rt,stimuli_grid,stimuli_csv,session,generation,trial,task,participant_class,participant_id,image_session,image_path,rating,participant,session,fullscreen,
,,training,1,10,10,True,0.7785074000003078,C:\Users\sv5g24\Desktop\Visual_Pareidolia_ERGO103162\participant_images\participant_Saivydas1_20250404_143356\stimuli_grids\Saivydas1_Gtraining_T1_grid.png,"['C:\\Users\\sv5g24\\Desktop\\Visual_Pareidolia_ERGO103162\\participant_images\\participant_Saivydas1_20250404_143356\\stimuli_csv\\Saivydas1_training_T1_stim0.csv', 'C:\\Users\\sv5g24\\Desktop\\Visual_Pareidolia_ERGO103162\\participant_images\\participant_Saivydas1_20250404_143356\\stimuli_csv\\Saivydas1_training_T1_stim1.csv', 'C:\\Users\\sv5g24\\Desktop\\Visual_Pareidolia_ERGO103162\\participant_images\\participant_Saivydas1_20250404_143356\\stimuli_csv\\Saivydas1_training_T1_stim2.csv', 'C:\\Users\\sv5g24\\Desktop\\Visual_Pareidolia_ERGO103162\\participant_images\\participant_Saivydas1_20250404_143356\\stimuli_csv\\Saivydas1_training_T1_stim3.csv', 'C:\\Users\\sv5g24\\Desktop\\Visual_Pareidolia_ERGO103162\\participant_images\\participant_Saivydas1_20250404_143356\\stimuli_csv\\Saivydas1_training_T1_stim4.csv', 'C:\\Users\\sv5g24\\Desktop\\Visual_Pareidolia_ERGO103162\\participant_images\\participant_Saivydas1_20250404_143356\\stimuli_csv\\Saivydas1_training_T1_stim5.csv', 'C:\\Users\\sv5g24\\Desktop\\Visual_Pareidolia_ERGO103162\\participant_images\\participant_Saivydas1_20250404_143356\\stimuli_csv\\Saivydas1_training_T1_stim6.csv', 'C:\\Users\\sv5g24\\Desktop\\Visual_Pareidolia_ERGO103162\\participant_images\\participant_Saivydas1_20250404_143356\\stimuli_csv\\Saivydas1_training_T1_stim7.csv', 'C:\\Users\\sv5g24\\Desktop\\Visual_Pareidolia_ERGO103162\\participant_images\\participant_Saivydas1_20250404_143356\\stimuli_csv\\Saivydas1_training_T1_stim8.csv', 'C:\\Users\\sv5g24\\Desktop\\Visual_Pareidolia_ERGO103162\\participant_images\\participant_Saivydas1_20250404_143356\\stimuli_csv\\Saivydas1_training_T1_stim9.csv', 'C:\\Users\\sv5g24\\Desktop\\Visual_Pareidolia_ERGO103162\\participant_images\\participant_Saivydas1_20250404_143356\\stimuli_csv\\Saivydas1_training_T1_stim10.csv', 'C:\\Users\\sv5g24\\Desktop\\Visual_Pareidolia_ERGO103162\\participant_images\\participant_Saivydas1_20250404_143356\\stimuli_csv\\Saivydas1_training_T1_stim11.csv']",001,,,,,,,,,Saivydas1,001,True,
,,training,2,9,9,True,0.5273628000013559,C:\Users\sv5g24\Desktop\Visual_Pareidolia_ERGO103162\participant_images\participant_Saivydas1_20250404_143356\stimuli_grids\Saivydas1_Gtraining_T2_grid.png,"['C:\\Users\\sv5g24\\Desktop\\Visual_Pareidolia_ERGO103162\\participant_images\\participant_Saivydas1_20250404_143356\\stimuli_csv\\Saivydas1_training_T2_stim0.csv', 'C:\\Users\\sv5g24\\Desktop\\Visual_Pareidolia_ERGO103162\\participant_images\\participant_Saivydas1_20250404_143356\\stimuli_csv\\Saivydas1_training_T2_stim1.csv', 'C:\\Users\\sv5g24\\Desktop\\Visual_Pareidolia_ERGO103162\\participant_images\\participant_Saivydas1_20250404_143356\\stimuli_csv\\Saivydas1_training_T2_stim2.csv', 'C:\\Users\\sv5g24\\Desktop\\Visual_Pareidolia_ERGO103162\\participant_images\\participant_Saivydas1_20250404_143356\\stimuli_csv\\Saivydas1_training_T2_stim3.csv', 'C:\\Users\\sv5g24\\Desktop\\Visual_Pareidolia_ERGO103162\\participant_images\\participant_Saivydas1_20250404_143356\\stimuli_csv\\Saivydas1_training_T2_stim4.csv', 'C:\\Users\\sv5g24\\Desktop\\Visual_Pareidolia_ERGO103162\\participant_images\\participant_Saivydas1_20250404_143356\\stimuli_csv\\Saivydas1_training_T2_stim5.csv', 'C:\\Users\\sv5g24\\Desktop\\Visual_Pareidolia_ERGO103162\\participant_images\\participant_Saivydas1_20250404_143356\\stimuli_csv\\Saivydas1_training_T2_stim6.csv', 'C:\\Users\\sv5g24\\Desktop\\Visual_Pareidolia_ERGO103162\\participant_images\\participant_Saivydas1_20250404_143356\\stimuli_csv\\Saivydas1_training_T2_stim7.csv', 'C:\\Users\\sv5g24\\Desktop\\Visual_Pareidolia_ERGO103162\\participant_images\\participant_Saivydas1_20250404_143356\\stimuli_csv\\Saivydas1_training_T2_stim8.csv', 'C:\\Users\\sv5g24\\Desktop\\Visual_Pareidolia_ERGO103162\\participant_images\\participant_Saivydas1_20250404_143356\\stimuli_csv\\Saivydas1_training_T2_stim9.csv', 'C:\\Users\\sv5g24\\Desktop\\Visual_Pareidolia_ERGO103162\\participant_images\\participant_Saivydas1_20250404_143356\\stimuli_csv\\Saivydas1_training_T2_stim10.csv', 'C:\\Users\\sv5g24\\Desktop\\Visual_Pareidolia_ERGO103162\\participant_images\\participant_Saivydas1_20250404_143356\\stimuli_csv\\Saivydas1_training_T2_stim11.csv']",001,,,,,,,,,Saivydas1,001,True,
,,training,3,7,7,True,0.5467303999994328,C:\Users\sv5g24\Desktop\Visual_Pareidolia_ERGO103162\participant_images\participant_Saivydas1_20250404_143356\stimuli_grids\Saivydas1_Gtraining_T3_grid.png,"['C:\\Users\\sv5g24\\Desktop\\Visual_Pareidolia_ERGO103162\\participant_images\\participant_Saivydas1_20250404_143356\\stimuli_csv\\Saivydas1_training_T3_stim0.csv', 'C:\\Users\\sv5g24\\Desktop\\Visual_Pareidolia_ERGO103162\\participant_images\\participant_Saivydas1_20250404_143356\\stimuli_csv\\Saivydas1_training_T3_stim1.csv', 'C:\\Users\\sv5g24\\Desktop\\Visual_Pareidolia_ERGO103162\\participant_images\\participant_Saivydas1_20250404_143356\\stimuli_csv\\Saivydas1_training_T3_stim2.csv', 'C:\\Users\\sv5g24\\Desktop\\Visual_Pareidolia_ERGO103162\\participant_images\\participant_Saivydas1_20250404_143356\\stimuli_csv\\Saivydas1_training_T3_stim3.csv', 'C:\\Users\\sv5g24\\Desktop\\Visual_Pareidolia_ERGO103162\\participant_images\\participant_Saivydas1_20250404_143356\\stimuli_csv\\Saivydas1_training_T3_stim4.csv', 'C:\\Users\\sv5g24\\Desktop\\Visual_Pareidolia_ERGO103162\\participant_images\\participant_Saivydas1_20250404_143356\\stimuli_csv\\Saivydas1_training_T3_stim5.csv', 'C:\\Users\\sv5g24\\Desktop\\Visual_Pareidolia_ERGO103162\\participant_images\\participant_Saivydas1_20250404_143356\\stimuli_csv\\Saivydas1_training_T3_stim6.csv', 'C:\\Users\\sv5g24\\Desktop\\Visual_Pareidolia_ERGO103162\\participant_images\\participant_Saivydas1_20250404_143356\\stimuli_csv\\Saivydas1_training_T3_stim7.csv', 'C:\\Users\\sv5g24\\Desktop\\Visual_Pareidolia_ERGO103162\\participant_images\\participant_Saivydas1_20250404_143356\\stimuli_csv\\Saivydas1_training_T3_stim8.csv', 'C:\\Users\\sv5g24\\Desktop\\Visual_Pareidolia_ERGO103162\\participant_images\\participant_Saivydas1_20250404_143356\\stimuli_csv\\Saivydas1_training_T3_stim9.csv', 'C:\\Users\\sv5g24\\Desktop\\Visual_Pareidolia_ERGO103162\\participant_images\\participant_Saivydas1_20250404_143356\\stimuli_csv\\Saivydas1_training_T3_stim10.csv', 'C:\\Users\\sv5g24\\Desktop\\Visual_Pareidolia_ERGO103162\\participant_images\\participant_Saivydas1_20250404_143356\\stimuli_csv\\Saivydas1_training_T3_stim11.csv']",001,,,,,,,,,Saivydas1,001,True,
,,training,4,10,10,True,0.7809398999997939,C:\Users\sv5g24\Desktop\Visual_Pareidolia_ERGO103162\participant_images\participant_Saivydas1_20250404_143356\stimuli_grids\Saivydas1_Gtraining_T4_grid.png,"['C:\\Users\\sv5g24\\Desktop\\Visual_Pareidolia_ERGO103162\\participant_images\\participant_Saivydas1_20250404_143356\\stimuli_csv\\Saivydas1_training_T4_stim0.csv', 'C:\\Users\\sv5g24\\Desktop\\Visual_Pareidolia_ERGO103162\\participant_images\\participant_Saivydas1_20250404_143356\\stimuli_csv\\Saivydas1_training_T4_stim1.csv', 'C:\\Users\\sv5g24\\Desktop\\Visual_Pareidolia_ERGO103162\\participant_images\\participant_Saivydas1_20250404_143356\\stimuli_csv\\Saivydas1_training_T4_stim2.csv', 'C:\\Users\\sv5g24\\Desktop\\Visual_Pareidolia_ERGO103162\\participant_images\\participant_Saivydas1_20250404_143356\\stimuli_csv\\Saivydas1_training_T4_stim3.csv', 'C:\\Users\\sv5g24\\Desktop\\Visual_Pareidolia_ERGO103162\\participant_images\\participant_Saivydas1_20250404_143356\\stimuli_csv\\Saivydas1_training_T4_stim4.csv', 'C:\\Users\\sv5g24\\Desktop\\Visual_Pareidolia_ERGO103162\\participant_images\\participant_Saivydas1_20250404_143356\\stimuli_csv\\Saivydas1_training_T4_stim5.csv', 'C:\\Users\\sv5g24\\Desktop\\Visual_Pareidolia_ERGO103162\\participant_images\\participant_Saivydas1_20250404_143356\\stimuli_csv\\Saivydas1_training_T4_stim6.csv', 'C:\\Users\\sv5g24\\Desktop\\Visual_Pareidolia_ERGO103162\\participant_images\\participant_Saivydas1_20250404_143356\\stimuli_csv\\Saivydas1_training_T4_stim7.csv', 'C:\\Users\\sv5g24\\Desktop\\Visual_Pareidolia_ERGO103162\\participant_images\\participant_Saivydas1_20250404_143356\\stimuli_csv\\Saivydas1_training_T4_stim8.csv', 'C:\\Users\\sv5g24\\Desktop\\Visual_Pareidolia_ERGO103162\\participant_images\\participant_Saivydas1_20250404_143356\\stimuli_csv\\Saivydas1_training_T4_stim9.csv', 'C:\\Users\\sv5g24\\Desktop\\Visual_Pareidolia_ERGO103162\\participant_images\\participant_Saivydas1_20250404_143356\\stimuli_csv\\Saivydas1_training_T4_stim10.csv', 'C:\\Users\\sv5g24\\Desktop\\Visual_Pareidolia_ERGO103162\\participant_images\\participant_Saivydas1_20250404_143356\\stimuli_csv\\Saivydas1_training_T4_stim11.csv']",001,,,,,,,,,Saivydas1,001,True,
,,training,5,11,11,True,0.5649849000001268,C:\Users\sv5g24\Desktop\Visual_Pareidolia_ERGO103162\participant_images\participant_Saivydas1_20250404_143356\stimuli_grids\Saivydas1_Gtraining_T5_grid.png,"['C:\\Users\\sv5g24\\Desktop\\Visual_Pareidolia_ERGO103162\\participant_images\\participant_Saivydas1_20250404_143356\\stimuli_csv\\Saivydas1_training_T5_stim0.csv', 'C:\\Users\\sv5g24\\Desktop\\Visual_Pareidolia_ERGO103162\\participant_images\\participant_Saivydas1_20250404_143356\\stimuli_csv\\Saivydas1_training_T5_stim1.csv', 'C:\\Users\\sv5g24\\Desktop\\Visual_Pareidolia_ERGO103162\\participant_images\\participant_Saivydas1_20250404_143356\\stimuli_csv\\Saivydas1_training_T5_stim2.csv', 'C:\\Users\\sv5g24\\Desktop\\Visual_Pareidolia_ERGO103162\\participant_images\\participant_Saivydas1_20250404_143356\\stimuli_csv\\Saivydas1_training_T5_stim3.csv', 'C:\\Users\\sv5g24\\Desktop\\Visual_Pareidolia_ERGO103162\\participant_images\\participant_Saivydas1_20250404_143356\\stimuli_csv\\Saivydas1_training_T5_stim4.csv', 'C:\\Users\\sv5g24\\Desktop\\Visual_Pareidolia_ERGO103162\\participant_images\\participant_Saivydas1_20250404_143356\\stimuli_csv\\Saivydas1_training_T5_stim5.csv', 'C:\\Users\\sv5g24\\Desktop\\Visual_Pareidolia_ERGO103162\\participant_images\\participant_Saivydas1_20250404_143356\\stimuli_csv\\Saivydas1_training_T5_stim6.csv', 'C:\\Users\\sv5g24\\Desktop\\Visual_Pareidolia_ERGO103162\\participant_images\\participant_Saivydas1_20250404_143356\\stimuli_csv\\Saivydas1_training_T5_stim7.csv', 'C:\\Users\\sv5g24\\Desktop\\Visual_Pareidolia_ERGO103162\\participant_images\\participant_Saivydas1_20250404_143356\\stimuli_csv\\Saivydas1_training_T5_stim8.csv', 'C:\\Users\\sv5g24\\Desktop\\Visual_Pareidolia_ERGO103162\\participant_images\\participant_Saivydas1_20250404_143356\\stimuli_csv\\Saivydas1_training_T5_stim9.csv', 'C:\\Users\\sv5g24\\Desktop\\Visual_Pareidolia_ERGO103162\\participant_images\\participant_Saivydas1_20250404_143356\\stimuli_csv\\Saivydas1_training_T5_stim10.csv', 'C:\\Users\\sv5g24\\Desktop\\Visual_Pareidolia_ERGO103162\\participant_images\\participant_Saivydas1_20250404_143356\\stimuli_csv\\Saivydas1_training_T5_stim11.csv']",001,,,,,,,,,Saivydas1,001,True,
,,training,6,0,0,True,1.263861800000086,C:\Users\sv5g24\Desktop\Visual_Pareidolia_ERGO103162\participant_images\participant_Saivydas1_20250404_143356\stimuli_grids\Saivydas1_Gtraining_T6_grid.png,"['C:\\Users\\sv5g24\\Desktop\\Visual_Pareidolia_ERGO103162\\participant_images\\participant_Saivydas1_20250404_143356\\stimuli_csv\\Saivydas1_training_T6_stim0.csv', 'C:\\Users\\sv5g24\\Desktop\\Visual_Pareidolia_ERGO103162\\participant_images\\participant_Saivydas1_20250404_143356\\stimuli_csv\\Saivydas1_training_T6_stim1.csv', 'C:\\Users\\sv5g24\\Desktop\\Visual_Pareidolia_ERGO103162\\participant_images\\participant_Saivydas1_20250404_143356\\stimuli_csv\\Saivydas1_training_T6_stim2.csv', 'C:\\Users\\sv5g24\\Desktop\\Visual_Pareidolia_ERGO103162\\participant_images\\participant_Saivydas1_20250404_143356\\stimuli_csv\\Saivydas1_training_T6_stim3.csv', 'C:\\Users\\sv5g24\\Desktop\\Visual_Pareidolia_ERGO103162\\participant_images\\participant_Saivydas1_20250404_143356\\stimuli_csv\\Saivydas1_training_T6_stim4.csv', 'C:\\Users\\sv5g24\\Desktop\\Visual_Pareidolia_ERGO103162\\participant_images\\participant_Saivydas1_20250404_143356\\stimuli_csv\\Saivydas1_training_T6_stim5.csv', 'C:\\Users\\sv5g24\\Desktop\\Visual_Pareidolia_ERGO103162\\participant_images\\participant_Saivydas1_20250404_143356\\stimuli_csv\\Saivydas1_training_T6_stim6.csv', 'C:\\Users\\sv5g24\\Desktop\\Visual_Pareidolia_ERGO103162\\participant_images\\participant_Saivydas1_20250404_143356\\stimuli_csv\\Saivydas1_training_T6_stim7.csv', 'C:\\Users\\sv5g24\\Desktop\\Visual_Pareidolia_ERGO103162\\participant_images\\participant_Saivydas1_20250404_143356\\stimuli_csv\\Saivydas1_training_T6_stim8.csv', 'C:\\Users\\sv5g24\\Desktop\\Visual_Pareidolia_ERGO103162\\participant_images\\participant_Saivydas1_20250404_143356\\stimuli_csv\\Saivydas1_training_T6_stim9.csv', 'C:\\Users\\sv5g24\\Desktop\\Visual_Pareidolia_ERGO103162\\participant_images\\participant_Saivydas1_20250404_143356\\stimuli_csv\\Saivydas1_training_T6_stim10.csv', 'C:\\Users\\sv5g24\\Desktop\\Visual_Pareidolia_ERGO103162\\participant_images\\participant_Saivydas1_20250404_143356\\stimuli_csv\\Saivydas1_training_T6_stim11.csv']",001,,,,,,,,,Saivydas1,001,True,
,,training,7,10,10,True,0.6131835999985924,C:\Users\sv5g24\Desktop\Visual_Pareidolia_ERGO103162\participant_images\participant_Saivydas1_20250404_143356\stimuli_grids\Saivydas1_Gtraining_T7_grid.png,"['C:\\Users\\sv5g24\\Desktop\\Visual_Pareidolia_ERGO103162\\participant_images\\participant_Saivydas1_20250404_143356\\stimuli_csv\\Saivydas1_training_T7_stim0.csv', 'C:\\Users\\sv5g24\\Desktop\\Visual_Pareidolia_ERGO103162\\participant_images\\participant_Saivydas1_20250404_143356\\stimuli_csv\\Saivydas1_training_T7_stim1.csv', 'C:\\Users\\sv5g24\\Desktop\\Visual_Pareidolia_ERGO103162\\participant_images\\participant_Saivydas1_20250404_143356\\stimuli_csv\\Saivydas1_training_T7_stim2.csv', 'C:\\Users\\sv5g24\\Desktop\\Visual_Pareidolia_ERGO103162\\participant_images\\participant_Saivydas1_20250404_143356\\stimuli_csv\\Saivydas1_training_T7_stim3.csv', 'C:\\Users\\sv5g24\\Desktop\\Visual_Pareidolia_ERGO103162\\participant_images\\participant_Saivydas1_20250404_143356\\stimuli_csv\\Saivydas1_training_T7_stim4.csv', 'C:\\Users\\sv5g24\\Desktop\\Visual_Pareidolia_ERGO103162\\participant_images\\participant_Saivydas1_20250404_143356\\stimuli_csv\\Saivydas1_training_T7_stim5.csv', 'C:\\Users\\sv5g24\\Desktop\\Visual_Pareidolia_ERGO103162\\participant_images\\participant_Saivydas1_20250404_143356\\stimuli_csv\\Saivydas1_training_T7_stim6.csv', 'C:\\Users\\sv5g24\\Desktop\\Visual_Pareidolia_ERGO103162\\participant_images\\participant_Saivydas1_20250404_143356\\stimuli_csv\\Saivydas1_training_T7_stim7.csv', 'C:\\Users\\sv5g24\\Desktop\\Visual_Pareidolia_ERGO103162\\participant_images\\participant_Saivydas1_20250404_143356\\stimuli_csv\\Saivydas1_training_T7_stim8.csv', 'C:\\Users\\sv5g24\\Desktop\\Visual_Pareidolia_ERGO103162\\participant_images\\participant_Saivydas1_20250404_143356\\stimuli_csv\\Saivydas1_training_T7_stim9.csv', 'C:\\Users\\sv5g24\\Desktop\\Visual_Pareidolia_ERGO103162\\participant_images\\participant_Saivydas1_20250404_143356\\stimuli_csv\\Saivydas1_training_T7_stim10.csv', 'C:\\Users\\sv5g24\\Desktop\\Visual_Pareidolia_ERGO103162\\participant_images\\participant_Saivydas1_20250404_143356\\stimuli_csv\\Saivydas1_training_T7_stim11.csv']",001,,,,,,,,,Saivydas1,001,True,
,,training,8,2,2,True,0.5297695000008389,C:\Users\sv5g24\Desktop\Visual_Pareidolia_ERGO103162\participant_images\participant_Saivydas1_20250404_143356\stimuli_grids\Saivydas1_Gtraining_T8_grid.png,"['C:\\Users\\sv5g24\\Desktop\\Visual_Pareidolia_ERGO103162\\participant_images\\participant_Saivydas1_20250404_143356\\stimuli_csv\\Saivydas1_training_T8_stim0.csv', 'C:\\Users\\sv5g24\\Desktop\\Visual_Pareidolia_ERGO103162\\participant_images\\participant_Saivydas1_20250404_143356\\stimuli_csv\\Saivydas1_training_T8_stim1.csv', 'C:\\Users\\sv5g24\\Desktop\\Visual_Pareidolia_ERGO103162\\participant_images\\participant_Saivydas1_20250404_143356\\stimuli_csv\\Saivydas1_training_T8_stim2.csv', 'C:\\Users\\sv5g24\\Desktop\\Visual_Pareidolia_ERGO103162\\participant_images\\participant_Saivydas1_20250404_143356\\stimuli_csv\\Saivydas1_training_T8_stim3.csv', 'C:\\Users\\sv5g24\\Desktop\\Visual_Pareidolia_ERGO103162\\participant_images\\participant_Saivydas1_20250404_143356\\stimuli_csv\\Saivydas1_training_T8_stim4.csv', 'C:\\Users\\sv5g24\\Desktop\\Visual_Pareidolia_ERGO103162\\participant_images\\participant_Saivydas1_20250404_143356\\stimuli_csv\\Saivydas1_training_T8_stim5.csv', 'C:\\Users\\sv5g24\\Desktop\\Visual_Pareidolia_ERGO103162\\participant_images\\participant_Saivydas1_20250404_143356\\stimuli_csv\\Saivydas1_training_T8_stim6.csv', 'C:\\Users\\sv5g24\\Desktop\\Visual_Pareidolia_ERGO103162\\participant_images\\participant_Saivydas1_20250404_143356\\stimuli_csv\\Saivydas1_training_T8_stim7.csv', 'C:\\Users\\sv5g24\\Desktop\\Visual_Pareidolia_ERGO103162\\participant_images\\participant_Saivydas1_20250404_143356\\stimuli_csv\\Saivydas1_training_T8_stim8.csv', 'C:\\Users\\sv5g24\\Desktop\\Visual_Pareidolia_ERGO103162\\participant_images\\participant_Saivydas1_20250404_143356\\stimuli_csv\\Saivydas1_training_T8_stim9.csv', 'C:\\Users\\sv5g24\\Desktop\\Visual_Pareidolia_ERGO103162\\participant_images\\participant_Saivydas1_20250404_143356\\stimuli_csv\\Saivydas1_training_T8_stim10.csv', 'C:\\Users\\sv5g24\\Desktop\\Visual_Pareidolia_ERGO103162\\participant_images\\participant_Saivydas1_20250404_143356\\stimuli_csv\\Saivydas1_training_T8_stim11.csv']",001,,,,,,,,,Saivydas1,001,True,
,,training,9,1,1,True,0.44232519999968645,C:\Users\sv5g24\Desktop\Visual_Pareidolia_ERGO103162\participant_images\participant_Saivydas1_20250404_143356\stimuli_grids\Saivydas1_Gtraining_T9_grid.png,"['C:\\Users\\sv5g24\\Desktop\\Visual_Pareidolia_ERGO103162\\participant_images\\participant_Saivydas1_20250404_143356\\stimuli_csv\\Saivydas1_training_T9_stim0.csv', 'C:\\Users\\sv5g24\\Desktop\\Visual_Pareidolia_ERGO103162\\participant_images\\participant_Saivydas1_20250404_143356\\stimuli_csv\\Saivydas1_training_T9_stim1.csv', 'C:\\Users\\sv5g24\\Desktop\\Visual_Pareidolia_ERGO103162\\participant_images\\participant_Saivydas1_20250404_143356\\stimuli_csv\\Saivydas1_training_T9_stim2.csv', 'C:\\Users\\sv5g24\\Desktop\\Visual_Pareidolia_ERGO103162\\participant_images\\participant_Saivydas1_20250404_143356\\stimuli_csv\\Saivydas1_training_T9_stim3.csv', 'C:\\Users\\sv5g24\\Desktop\\Visual_Pareidolia_ERGO103162\\participant_images\\participant_Saivydas1_20250404_143356\\stimuli_csv\\Saivydas1_training_T9_stim4.csv', 'C:\\Users\\sv5g24\\Desktop\\Visual_Pareidolia_ERGO103162\\participant_images\\participant_Saivydas1_20250404_143356\\stimuli_csv\\Saivydas1_training_T9_stim5.csv', 'C:\\Users\\sv5g24\\Desktop\\Visual_Pareidolia_ERGO103162\\participant_images\\participant_Saivydas1_20250404_143356\\stimuli_csv\\Saivydas1_training_T9_stim6.csv', 'C:\\Users\\sv5g24\\Desktop\\Visual_Pareidolia_ERGO103162\\participant_images\\participant_Saivydas1_20250404_143356\\stimuli_csv\\Saivydas1_training_T9_stim7.csv', 'C:\\Users\\sv5g24\\Desktop\\Visual_Pareidolia_ERGO103162\\participant_images\\participant_Saivydas1_20250404_143356\\stimuli_csv\\Saivydas1_training_T9_stim8.csv', 'C:\\Users\\sv5g24\\Desktop\\Visual_Pareidolia_ERGO103162\\participant_images\\participant_Saivydas1_20250404_143356\\stimuli_csv\\Saivydas1_training_T9_stim9.csv', 'C:\\Users\\sv5g24\\Desktop\\Visual_Pareidolia_ERGO103162\\participant_images\\participant_Saivydas1_20250404_143356\\stimuli_csv\\Saivydas1_training_T9_stim10.csv', 'C:\\Users\\sv5g24\\Desktop\\Visual_Pareidolia_ERGO103162\\participant_images\\participant_Saivydas1_20250404_143356\\stimuli_csv\\Saivydas1_training_T9_stim11.csv']",001,,,,,,,,,Saivydas1,001,True,
,,training,10,7,7,True,0.6092014000005292,C:\Users\sv5g24\Desktop\Visual_Pareidolia_ERGO103162\participant_images\participant_Saivydas1_20250404_143356\stimuli_grids\Saivydas1_Gtraining_T10_grid.png,"['C:\\Users\\sv5g24\\Desktop\\Visual_Pareidolia_ERGO103162\\participant_images\\participant_Saivydas1_20250404_143356\\stimuli_csv\\Saivydas1_training_T10_stim0.csv', 'C:\\Users\\sv5g24\\Desktop\\Visual_Pareidolia_ERGO103162\\participant_images\\participant_Saivydas1_20250404_143356\\stimuli_csv\\Saivydas1_training_T10_stim1.csv', 'C:\\Users\\sv5g24\\Desktop\\Visual_Pareidolia_ERGO103162\\participant_images\\participant_Saivydas1_20250404_143356\\stimuli_csv\\Saivydas1_training_T10_stim2.csv', 'C:\\Users\\sv5g24\\Desktop\\Visual_Pareidolia_ERGO103162\\participant_images\\participant_Saivydas1_20250404_143356\\stimuli_csv\\Saivydas1_training_T10_stim3.csv', 'C:\\Users\\sv5g24\\Desktop\\Visual_Pareidolia_ERGO103162\\participant_images\\participant_Saivydas1_20250404_143356\\stimuli_csv\\Saivydas1_training_T10_stim4.csv', 'C:\\Users\\sv5g24\\Desktop\\Visual_Pareidolia_ERGO103162\\participant_images\\participant_Saivydas1_20250404_143356\\stimuli_csv\\Saivydas1_training_T10_stim5.csv', 'C:\\Users\\sv5g24\\Desktop\\Visual_Pareidolia_ERGO103162\\participant_images\\participant_Saivydas1_20250404_143356\\stimuli_csv\\Saivydas1_training_T10_stim6.csv', 'C:\\Users\\sv5g24\\Desktop\\Visual_Pareidolia_ERGO103162\\participant_images\\participant_Saivydas1_20250404_143356\\stimuli_csv\\Saivydas1_training_T10_stim7.csv', 'C:\\Users\\sv5g24\\Desktop\\Visual_Pareidolia_ERGO103162\\participant_images\\participant_Saivydas1_20250404_143356\\stimuli_csv\\Saivydas1_training_T10_stim8.csv', 'C:\\Users\\sv5g24\\Desktop\\Visual_Pareidolia_ERGO103162\\participant_images\\participant_Saivydas1_20250404_143356\\stimuli_csv\\Saivydas1_training_T10_stim9.csv', 'C:\\Users\\sv5g24\\Desktop\\Visual_Pareidolia_ERGO103162\\participant_images\\participant_Saivydas1_20250404_143356\\stimuli_csv\\Saivydas1_training_T10_stim10.csv', 'C:\\Users\\sv5g24\\Desktop\\Visual_Pareidolia_ERGO103162\\participant_images\\participant_Saivydas1_20250404_143356\\stimuli_csv\\Saivydas1_training_T10_stim11.csv']",001,,,,,,,,,Saivydas1,001,True,
,,training,11,10,10,True,0.5946062999992137,C:\Users\sv5g24\Desktop\Visual_Pareidolia_ERGO103162\participant_images\participant_Saivydas1_20250404_143356\stimuli_grids\Saivydas1_Gtraining_T11_grid.png,"['C:\\Users\\sv5g24\\Desktop\\Visual_Pareidolia_ERGO103162\\participant_images\\participant_Saivydas1_20250404_143356\\stimuli_csv\\Saivydas1_training_T11_stim0.csv', 'C:\\Users\\sv5g24\\Desktop\\Visual_Pareidolia_ERGO103162\\participant_images\\participant_Saivydas1_20250404_143356\\stimuli_csv\\Saivydas1_training_T11_stim1.csv', 'C:\\Users\\sv5g24\\Desktop\\Visual_Pareidolia_ERGO103162\\participant_images\\participant_Saivydas1_20250404_143356\\stimuli_csv\\Saivydas1_training_T11_stim2.csv', 'C:\\Users\\sv5g24\\Desktop\\Visual_Pareidolia_ERGO103162\\participant_images\\participant_Saivydas1_20250404_143356\\stimuli_csv\\Saivydas1_training_T11_stim3.csv', 'C:\\Users\\sv5g24\\Desktop\\Visual_Pareidolia_ERGO103162\\participant_images\\participant_Saivydas1_20250404_143356\\stimuli_csv\\Saivydas1_training_T11_stim4.csv', 'C:\\Users\\sv5g24\\Desktop\\Visual_Pareidolia_ERGO103162\\participant_images\\participant_Saivydas1_20250404_143356\\stimuli_csv\\Saivydas1_training_T11_stim5.csv', 'C:\\Users\\sv5g24\\Desktop\\Visual_Pareidolia_ERGO103162\\participant_images\\participant_Saivydas1_20250404_143356\\stimuli_csv\\Saivydas1_training_T11_stim6.csv', 'C:\\Users\\sv5g24\\Desktop\\Visual_Pareidolia_ERGO103162\\participant_images\\participant_Saivydas1_20250404_143356\\stimuli_csv\\Saivydas1_training_T11_stim7.csv', 'C:\\Users\\sv5g24\\Desktop\\Visual_Pareidolia_ERGO103162\\participant_images\\participant_Saivydas1_20250404_143356\\stimuli_csv\\Saivydas1_training_T11_stim8.csv', 'C:\\Users\\sv5g24\\Desktop\\Visual_Pareidolia_ERGO103162\\participant_images\\participant_Saivydas1_20250404_143356\\stimuli_csv\\Saivydas1_training_T11_stim9.csv', 'C:\\Users\\sv5g24\\Desktop\\Visual_Pareidolia_ERGO103162\\participant_images\\participant_Saivydas1_20250404_143356\\stimuli_csv\\Saivydas1_training_T11_stim10.csv', 'C:\\Users\\sv5g24\\Desktop\\Visual_Pareidolia_ERGO103162\\participant_images\\participant_Saivydas1_20250404_143356\\stimuli_csv\\Saivydas1_training_T11_stim11.csv']",001,,,,,,,,,Saivydas1,001,True,
,,training,12,1,1,True,1.6640999999999622,C:\Users\sv5g24\Desktop\Visual_Pareidolia_ERGO103162\participant_images\participant_Saivydas1_20250404_143356\stimuli_grids\Saivydas1_Gtraining_T12_grid.png,"['C:\\Users\\sv5g24\\Desktop\\Visual_Pareidolia_ERGO103162\\participant_images\\participant_Saivydas1_20250404_143356\\stimuli_csv\\Saivydas1_training_T12_stim0.csv', 'C:\\Users\\sv5g24\\Desktop\\Visual_Pareidolia_ERGO103162\\participant_images\\participant_Saivydas1_20250404_143356\\stimuli_csv\\Saivydas1_training_T12_stim1.csv', 'C:\\Users\\sv5g24\\Desktop\\Visual_Pareidolia_ERGO103162\\participant_images\\participant_Saivydas1_20250404_143356\\stimuli_csv\\Saivydas1_training_T12_stim2.csv', 'C:\\Users\\sv5g24\\Desktop\\Visual_Pareidolia_ERGO103162\\participant_images\\participant_Saivydas1_20250404_143356\\stimuli_csv\\Saivydas1_training_T12_stim3.csv', 'C:\\Users\\sv5g24\\Desktop\\Visual_Pareidolia_ERGO103162\\participant_images\\participant_Saivydas1_20250404_143356\\stimuli_csv\\Saivydas1_training_T12_stim4.csv', 'C:\\Users\\sv5g24\\Desktop\\Visual_Pareidolia_ERGO103162\\participant_images\\participant_Saivydas1_20250404_143356\\stimuli_csv\\Saivydas1_training_T12_stim5.csv', 'C:\\Users\\sv5g24\\Desktop\\Visual_Pareidolia_ERGO103162\\participant_images\\participant_Saivydas1_20250404_143356\\stimuli_csv\\Saivydas1_training_T12_stim6.csv', 'C:\\Users\\sv5g24\\Desktop\\Visual_Pareidolia_ERGO103162\\participant_images\\participant_Saivydas1_20250404_143356\\stimuli_csv\\Saivydas1_training_T12_stim7.csv', 'C:\\Users\\sv5g24\\Desktop\\Visual_Pareidolia_ERGO103162\\participant_images\\participant_Saivydas1_20250404_143356\\stimuli_csv\\Saivydas1_training_T12_stim8.csv', 'C:\\Users\\sv5g24\\Desktop\\Visual_Pareidolia_ERGO103162\\participant_images\\participant_Saivydas1_20250404_143356\\stimuli_csv\\Saivydas1_training_T12_stim9.csv', 'C:\\Users\\sv5g24\\Desktop\\Visual_Pareidolia_ERGO103162\\participant_images\\participant_Saivydas1_20250404_143356\\stimuli_csv\\Saivydas1_training_T12_stim10.csv', 'C:\\Users\\sv5g24\\Desktop\\Visual_Pareidolia_ERGO103162\\participant_images\\participant_Saivydas1_20250404_143356\\stimuli_csv\\Saivydas1_training_T12_stim11.csv']",001,,,,,,,,,Saivydas1,001,True,
,,,,,3,,4.068525299999237,C:\Users\sv5g24\Desktop\Visual_Pareidolia_ERGO103162\participant_images\participant_Saivydas1_20250404_143356\stimuli_grids\Saivydas1_G0_T0_grid.png,,001,0,0,,,,,,,Saivydas1,001,True,
,,,,,0,,7.1246647000007215,C:\Users\sv5g24\Desktop\Visual_Pareidolia_ERGO103162\participant_images\participant_Saivydas1_20250404_143356\stimuli_grids\Saivydas1_G0_T1_grid.png,,001,0,1,,,,,,,Saivydas1,001,True,
,,,,,3,,5.519829299999401,C:\Users\sv5g24\Desktop\Visual_Pareidolia_ERGO103162\participant_images\participant_Saivydas1_20250404_143356\stimuli_grids\Saivydas1_G0_T2_grid.png,,001,0,2,,,,,,,Saivydas1,001,True,
,,,,,4,,5.539339699998891,C:\Users\sv5g24\Desktop\Visual_Pareidolia_ERGO103162\participant_images\participant_Saivydas1_20250404_143356\stimuli_grids\Saivydas1_G0_T3_grid.png,,001,0,3,,,,,,,Saivydas1,001,True,
,,,,,10,,15.939677800000936,C:\Users\sv5g24\Desktop\Visual_Pareidolia_ERGO103162\participant_images\participant_Saivydas1_20250404_143356\stimuli_grids\Saivydas1_G0_T4_grid.png,,001,0,4,,,,,,,Saivydas1,001,True,
,,,,,5,,5.624735499999588,C:\Users\sv5g24\Desktop\Visual_Pareidolia_ERGO103162\participant_images\participant_Saivydas1_20250404_143356\stimuli_grids\Saivydas1_G0_T5_grid.png,,001,0,5,,,,,,,Saivydas1,001,True,
,,,,,0,,11.564114200000404,C:\Users\sv5g24\Desktop\Visual_Pareidolia_ERGO103162\participant_images\participant_Saivydas1_20250404_143356\stimuli_grids\Saivydas1_G0_T6_grid.png,,001,0,6,,,,,,,Saivydas1,001,True,
,,,,,5,,6.608393000000433,C:\Users\sv5g24\Desktop\Visual_Pareidolia_ERGO103162\participant_images\participant_Saivydas1_20250404_143356\stimuli_grids\Saivydas1_G0_T7_grid.png,,001,0,7,,,,,,,Saivydas1,001,True,
,,,,,8,,8.94135230000029,C:\Users\sv5g24\Desktop\Visual_Pareidolia_ERGO103162\participant_images\participant_Saivydas1_20250404_143356\stimuli_grids\Saivydas1_G0_T8_grid.png,,001,0,8,,,,,,,Saivydas1,001,True,
,,,,,8,,8.825360200000432,C:\Users\sv5g24\Desktop\Visual_Pareidolia_ERGO103162\participant_images\participant_Saivydas1_20250404_143356\stimuli_grids\Saivydas1_G0_T9_grid.png,,001,0,9,,,,,,,Saivydas1,001,True,
,,,,,8,,12.285928999999669,C:\Users\sv5g24\Desktop\Visual_Pareidolia_ERGO103162\participant_images\participant_Saivydas1_20250404_143356\stimuli_grids\Saivydas1_G0_T10_grid.png,,001,0,10,,,,,,,Saivydas1,001,True,
,,,,,1,,15.494933899999523,C:\Users\sv5g24\Desktop\Visual_Pareidolia_ERGO103162\participant_images\participant_Saivydas1_20250404_143356\stimuli_grids\Saivydas1_G0_T11_grid.png,,001,0,11,,,,,,,Saivydas1,001,True,
,,,,,4,,2.504625400000805,C:\Users\sv5g24\Desktop\Visual_Pareidolia_ERGO103162\participant_images\participant_Saivydas1_20250404_143356\stimuli_grids\Saivydas1_G1_T0_grid.png,,001,1,0,,,,,,,Saivydas1,001,True,
,,,,,0,,3.541241300001275,C:\Users\sv5g24\Desktop\Visual_Pareidolia_ERGO103162\participant_images\participant_Saivydas1_20250404_143356\stimuli_grids\Saivydas1_G1_T1_grid.png,,001,1,1,,,,,,,Saivydas1,001,True,
,,,,,8,,4.8583281000010174,C:\Users\sv5g24\Desktop\Visual_Pareidolia_ERGO103162\participant_images\participant_Saivydas1_20250404_143356\stimuli_grids\Saivydas1_G1_T2_grid.png,,001,1,2,,,,,,,Saivydas1,001,True,
,,,,,0,,17.113879799999268,C:\Users\sv5g24\Desktop\Visual_Pareidolia_ERGO103162\participant_images\participant_Saivydas1_20250404_143356\stimuli_grids\Saivydas1_G1_T3_grid.png,,001,1,3,,,,,,,Saivydas1,001,True,
,,,,,8,,8.588236400000824,C:\Users\sv5g24\Desktop\Visual_Pareidolia_ERGO103162\participant_images\participant_Saivydas1_20250404_143356\stimuli_grids\Saivydas1_G1_T4_grid.png,,001,1,4,,,,,,,Saivydas1,001,True,
,,,,,6,,11.28238169999895,C:\Users\sv5g24\Desktop\Visual_Pareidolia_ERGO103162\participant_images\participant_Saivydas1_20250404_143356\stimuli_grids\Saivydas1_G1_T5_grid.png,,001,1,5,,,,,,,Saivydas1,001,True,
,,,,,10,,20.60717289999957,C:\Users\sv5g24\Desktop\Visual_Pareidolia_ERGO103162\participant_images\participant_Saivydas1_20250404_143356\stimuli_grids\Saivydas1_G1_T6_grid.png,,001,1,6,,,,,,,Saivydas1,001,True,
,,,,,10,,15.214793899998767,C:\Users\sv5g24\Desktop\Visual_Pareidolia_ERGO103162\participant_images\participant_Saivydas1_20250404_143356\stimuli_grids\Saivydas1_G1_T7_grid.png,,001,1,7,,,,,,,Saivydas1,001,True,
,,,,,4,,6.007502399999794,C:\Users\sv5g24\Desktop\Visual_Pareidolia_ERGO103162\participant_images\participant_Saivydas1_20250404_143356\stimuli_grids\Saivydas1_G1_T8_grid.png,,001,1,8,,,,,,,Saivydas1,001,True,
,,,,,2,,8.836576600000626,C:\Users\sv5g24\Desktop\Visual_Pareidolia_ERGO103162\participant_images\participant_Saivydas1_20250404_143356\stimuli_grids\Saivydas1_G1_T9_grid.png,,001,1,9,,,,,,,Saivydas1,001,True,
,,,,,11,,8.608778599998914,C:\Users\sv5g24\Desktop\Visual_Pareidolia_ERGO103162\participant_images\participant_Saivydas1_20250404_143356\stimuli_grids\Saivydas1_G1_T10_grid.png,,001,1,10,,,,,,,Saivydas1,001,True,
,,,,,2,,5.9241495999995095,C:\Users\sv5g24\Desktop\Visual_Pareidolia_ERGO103162\participant_images\participant_Saivydas1_20250404_143356\stimuli_grids\Saivydas1_G1_T11_grid.png,,001,1,11,,,,,,,Saivydas1,001,True,
,,,,,2,,8.5031231999983,C:\Users\sv5g24\Desktop\Visual_Pareidolia_ERGO103162\participant_images\participant_Saivydas1_20250404_143356\stimuli_grids\Saivydas1_G2_T0_grid.png,,001,2,0,,,,,,,Saivydas1,001,True,
,,,,,1,,9.005806799999846,C:\Users\sv5g24\Desktop\Visual_Pareidolia_ERGO103162\participant_images\participant_Saivydas1_20250404_143356\stimuli_grids\Saivydas1_G2_T1_grid.png,,001,2,1,,,,,,,Saivydas1,001,True,
,,,,,5,,8.896644700000252,C:\Users\sv5g24\Desktop\Visual_Pareidolia_ERGO103162\participant_images\participant_Saivydas1_20250404_143356\stimuli_grids\Saivydas1_G2_T2_grid.png,,001,2,2,,,,,,,Saivydas1,001,True,
,,,,,1,,6.383664000000863,C:\Users\sv5g24\Desktop\Visual_Pareidolia_ERGO103162\participant_images\participant_Saivydas1_20250404_143356\stimuli_grids\Saivydas1_G2_T3_grid.png,,001,2,3,,,,,,,Saivydas1,001,True,
,,,,,0,,5.041066399999181,C:\Users\sv5g24\Desktop\Visual_Pareidolia_ERGO103162\participant_images\participant_Saivydas1_20250404_143356\stimuli_grids\Saivydas1_G2_T4_grid.png,,001,2,4,,,,,,,Saivydas1,001,True,
,,,,,1,,4.319957100000465,C:\Users\sv5g24\Desktop\Visual_Pareidolia_ERGO103162\participant_images\participant_Saivydas1_20250404_143356\stimuli_grids\Saivydas1_G2_T5_grid.png,,001,2,5,,,,,,,Saivydas1,001,True,
,,,,,5,,9.523723600001176,C:\Users\sv5g24\Desktop\Visual_Pareidolia_ERGO103162\participant_images\participant_Saivydas1_20250404_143356\stimuli_grids\Saivydas1_G2_T6_grid.png,,001,2,6,,,,,,,Saivydas1,001,True,
,,,,,9,,7.908969800000705,C:\Users\sv5g24\Desktop\Visual_Pareidolia_ERGO103162\participant_images\participant_Saivydas1_20250404_143356\stimuli_grids\Saivydas1_G2_T7_grid.png,,001,2,7,,,,,,,Saivydas1,001,True,
,,,,,11,,10.017870700001367,C:\Users\sv5g24\Desktop\Visual_Pareidolia_ERGO103162\participant_images\participant_Saivydas1_20250404_143356\stimuli_grids\Saivydas1_G2_T8_grid.png,,001,2,8,,,,,,,Saivydas1,001,True,
,,,,,11,,4.658323200001178,C:\Users\sv5g24\Desktop\Visual_Pareidolia_ERGO103162\participant_images\participant_Saivydas1_20250404_143356\stimuli_grids\Saivydas1_G2_T9_grid.png,,001,2,9,,,,,,,Saivydas1,001,True,
,,,,,4,,11.818915100000595,C:\Users\sv5g24\Desktop\Visual_Pareidolia_ERGO103162\participant_images\participant_Saivydas1_20250404_143356\stimuli_grids\Saivydas1_G2_T10_grid.png,,001,2,10,,,,,,,Saivydas1,001,True,
,,,,,5,,13.940954199999396,C:\Users\sv5g24\Desktop\Visual_Pareidolia_ERGO103162\participant_images\participant_Saivydas1_20250404_143356\stimuli_grids\Saivydas1_G2_T11_grid.png,,001,2,11,,,,,,,Saivydas1,001,True,
,,,,,0,,9.29110109999965,C:\Users\sv5g24\Desktop\Visual_Pareidolia_ERGO103162\participant_images\participant_Saivydas1_20250404_143356\stimuli_grids\Saivydas1_G3_T0_grid.png,,001,3,0,,,,,,,Saivydas1,001,True,
,,,,,11,,10.070709499999793,C:\Users\sv5g24\Desktop\Visual_Pareidolia_ERGO103162\participant_images\participant_Saivydas1_20250404_143356\stimuli_grids\Saivydas1_G3_T1_grid.png,,001,3,1,,,,,,,Saivydas1,001,True,
,,,,,8,,6.441471899999669,C:\Users\sv5g24\Desktop\Visual_Pareidolia_ERGO103162\participant_images\participant_Saivydas1_20250404_143356\stimuli_grids\Saivydas1_G3_T2_grid.png,,001,3,2,,,,,,,Saivydas1,001,True,
,,,,,11,,5.06710270000076,C:\Users\sv5g24\Desktop\Visual_Pareidolia_ERGO103162\participant_images\participant_Saivydas1_20250404_143356\stimuli_grids\Saivydas1_G3_T3_grid.png,,001,3,3,,,,,,,Saivydas1,001,True,
,,,,,11,,7.924052700000175,C:\Users\sv5g24\Desktop\Visual_Pareidolia_ERGO103162\participant_images\participant_Saivydas1_20250404_143356\stimuli_grids\Saivydas1_G3_T4_grid.png,,001,3,4,,,,,,,Saivydas1,001,True,
,,,,,4,,1.8755199000006542,C:\Users\sv5g24\Desktop\Visual_Pareidolia_ERGO103162\participant_images\participant_Saivydas1_20250404_143356\stimuli_grids\Saivydas1_G3_T5_grid.png,,001,3,5,,,,,,,Saivydas1,001,True,
,,,,,1,,3.4148807000001398,C:\Users\sv5g24\Desktop\Visual_Pareidolia_ERGO103162\participant_images\participant_Saivydas1_20250404_143356\stimuli_grids\Saivydas1_G3_T6_grid.png,,001,3,6,,,,,,,Saivydas1,001,True,
,,,,,8,,2.000230499999816,C:\Users\sv5g24\Desktop\Visual_Pareidolia_ERGO103162\participant_images\participant_Saivydas1_20250404_143356\stimuli_grids\Saivydas1_G3_T7_grid.png,,001,3,7,,,,,,,Saivydas1,001,True,
,,,,,9,,2.6306177000005846,C:\Users\sv5g24\Desktop\Visual_Pareidolia_ERGO103162\participant_images\participant_Saivydas1_20250404_143356\stimuli_grids\Saivydas1_G3_T8_grid.png,,001,3,8,,,,,,,Saivydas1,001,True,
,,,,,9,,7.225067200000922,C:\Users\sv5g24\Desktop\Visual_Pareidolia_ERGO103162\participant_images\participant_Saivydas1_20250404_143356\stimuli_grids\Saivydas1_G3_T9_grid.png,,001,3,9,,,,,,,Saivydas1,001,True,
,,,,,0,,7.136547399999472,C:\Users\sv5g24\Desktop\Visual_Pareidolia_ERGO103162\participant_images\participant_Saivydas1_20250404_143356\stimuli_grids\Saivydas1_G3_T10_grid.png,,001,3,10,,,,,,,Saivydas1,001,True,
,,,,,8,,6.98147169999902,C:\Users\sv5g24\Desktop\Visual_Pareidolia_ERGO103162\participant_images\participant_Saivydas1_20250404_143356\stimuli_grids\Saivydas1_G3_T11_grid.png,,001,3,11,,,,,,,Saivydas1,001,True,
,,,,,4,,1.7732251999987056,C:\Users\sv5g24\Desktop\Visual_Pareidolia_ERGO103162\participant_images\participant_Saivydas1_20250404_143356\stimuli_grids\Saivydas1_G4_T0_grid.png,,001,4,0,,,,,,,Saivydas1,001,True,
,,,,,5,,5.902141700000357,C:\Users\sv5g24\Desktop\Visual_Pareidolia_ERGO103162\participant_images\participant_Saivydas1_20250404_143356\stimuli_grids\Saivydas1_G4_T1_grid.png,,001,4,1,,,,,,,Saivydas1,001,True,
,,,,,2,,5.097361000000092,C:\Users\sv5g24\Desktop\Visual_Pareidolia_ERGO103162\participant_images\participant_Saivydas1_20250404_143356\stimuli_grids\Saivydas1_G4_T2_grid.png,,001,4,2,,,,,,,Saivydas1,001,True,
,,,,,9,,4.291450300001088,C:\Users\sv5g24\Desktop\Visual_Pareidolia_ERGO103162\participant_images\participant_Saivydas1_20250404_143356\stimuli_grids\Saivydas1_G4_T3_grid.png,,001,4,3,,,,,,,Saivydas1,001,True,
,,,,,4,,9.842276199999105,C:\Users\sv5g24\Desktop\Visual_Pareidolia_ERGO103162\participant_images\participant_Saivydas1_20250404_143356\stimuli_grids\Saivydas1_G4_T4_grid.png,,001,4,4,,,,,,,Saivydas1,001,True,
,,,,,5,,11.191242699998838,C:\Users\sv5g24\Desktop\Visual_Pareidolia_ERGO103162\participant_images\participant_Saivydas1_20250404_143356\stimuli_grids\Saivydas1_G4_T5_grid.png,,001,4,5,,,,,,,Saivydas1,001,True,
,,,,,10,,4.831061700000646,C:\Users\sv5g24\Desktop\Visual_Pareidolia_ERGO103162\participant_images\participant_Saivydas1_20250404_143356\stimuli_grids\Saivydas1_G4_T6_grid.png,,001,4,6,,,,,,,Saivydas1,001,True,
,,,,,11,,8.015268999999535,C:\Users\sv5g24\Desktop\Visual_Pareidolia_ERGO103162\participant_images\participant_Saivydas1_20250404_143356\stimuli_grids\Saivydas1_G4_T7_grid.png,,001,4,7,,,,,,,Saivydas1,001,True,
,,,,,8,,4.1738814000000275,C:\Users\sv5g24\Desktop\Visual_Pareidolia_ERGO103162\participant_images\participant_Saivydas1_20250404_143356\stimuli_grids\Saivydas1_G4_T8_grid.png,,001,4,8,,,,,,,Saivydas1,001,True,
,,,,,10,,7.397066100000302,C:\Users\sv5g24\Desktop\Visual_Pareidolia_ERGO103162\participant_images\participant_Saivydas1_20250404_143356\stimuli_grids\Saivydas1_G4_T9_grid.png,,001,4,9,,,,,,,Saivydas1,001,True,
,,,,,5,,4.069655799999964,C:\Users\sv5g24\Desktop\Visual_Pareidolia_ERGO103162\participant_images\participant_Saivydas1_20250404_143356\stimuli_grids\Saivydas1_G4_T10_grid.png,,001,4,10,,,,,,,Saivydas1,001,True,
,,,,,1,,5.7581790999993245,C:\Users\sv5g24\Desktop\Visual_Pareidolia_ERGO103162\participant_images\participant_Saivydas1_20250404_143356\stimuli_grids\Saivydas1_G4_T11_grid.png,,001,4,11,,,,,,,Saivydas1,001,True,
,,,,,7,,15.129976399999578,C:\Users\sv5g24\Desktop\Visual_Pareidolia_ERGO103162\participant_images\participant_Saivydas1_20250404_143356\stimuli_grids\Saivydas1_G5_T0_grid.png,,001,5,0,,,,,,,Saivydas1,001,True,
,,,,,7,,3.7854628000004595,C:\Users\sv5g24\Desktop\Visual_Pareidolia_ERGO103162\participant_images\participant_Saivydas1_20250404_143356\stimuli_grids\Saivydas1_G5_T1_grid.png,,001,5,1,,,,,,,Saivydas1,001,True,
,,,,,4,,9.690355799999452,C:\Users\sv5g24\Desktop\Visual_Pareidolia_ERGO103162\participant_images\participant_Saivydas1_20250404_143356\stimuli_grids\Saivydas1_G5_T2_grid.png,,001,5,2,,,,,,,Saivydas1,001,True,
,,,,,9,,3.8517615999990085,C:\Users\sv5g24\Desktop\Visual_Pareidolia_ERGO103162\participant_images\participant_Saivydas1_20250404_143356\stimuli_grids\Saivydas1_G5_T3_grid.png,,001,5,3,,,,,,,Saivydas1,001,True,
,,,,,5,,8.390516200001002,C:\Users\sv5g24\Desktop\Visual_Pareidolia_ERGO103162\participant_images\participant_Saivydas1_20250404_143356\stimuli_grids\Saivydas1_G5_T4_grid.png,,001,5,4,,,,,,,Saivydas1,001,True,
,,,,,4,,7.569599200000084,C:\Users\sv5g24\Desktop\Visual_Pareidolia_ERGO103162\participant_images\participant_Saivydas1_20250404_143356\stimuli_grids\Saivydas1_G5_T5_grid.png,,001,5,5,,,,,,,Saivydas1,001,True,
,,,,,7,,15.13181209999857,C:\Users\sv5g24\Desktop\Visual_Pareidolia_ERGO103162\participant_images\participant_Saivydas1_20250404_143356\stimuli_grids\Saivydas1_G5_T6_grid.png,,001,5,6,,,,,,,Saivydas1,001,True,
,,,,,4,,3.6698973000002297,C:\Users\sv5g24\Desktop\Visual_Pareidolia_ERGO103162\participant_images\participant_Saivydas1_20250404_143356\stimuli_grids\Saivydas1_G5_T7_grid.png,,001,5,7,,,,,,,Saivydas1,001,True,
,,,,,8,,2.603670399999828,C:\Users\sv5g24\Desktop\Visual_Pareidolia_ERGO103162\participant_images\participant_Saivydas1_20250404_143356\stimuli_grids\Saivydas1_G5_T8_grid.png,,001,5,8,,,,,,,Saivydas1,001,True,
,,,,,1,,2.8025049999996554,C:\Users\sv5g24\Desktop\Visual_Pareidolia_ERGO103162\participant_images\participant_Saivydas1_20250404_143356\stimuli_grids\Saivydas1_G5_T9_grid.png,,001,5,9,,,,,,,Saivydas1,001,True,
,,,,,11,,6.853455699998449,C:\Users\sv5g24\Desktop\Visual_Pareidolia_ERGO103162\participant_images\participant_Saivydas1_20250404_143356\stimuli_grids\Saivydas1_G5_T10_grid.png,,001,5,10,,,,,,,Saivydas1,001,True,
,,,,,8,,8.602976100000888,C:\Users\sv5g24\Desktop\Visual_Pareidolia_ERGO103162\participant_images\participant_Saivydas1_20250404_143356\stimuli_grids\Saivydas1_G5_T11_grid.png,,001,5,11,,,,,,,Saivydas1,001,True,
,,,,,4,,7.208127800000511,C:\Users\sv5g24\Desktop\Visual_Pareidolia_ERGO103162\participant_images\participant_Saivydas1_20250404_143356\stimuli_grids\Saivydas1_G6_T0_grid.png,,001,6,0,,,,,,,Saivydas1,001,True,
,,,,,11,,23.336592200001178,C:\Users\sv5g24\Desktop\Visual_Pareidolia_ERGO103162\participant_images\participant_Saivydas1_20250404_143356\stimuli_grids\Saivydas1_G6_T1_grid.png,,001,6,1,,,,,,,Saivydas1,001,True,
,,,,,1,,2.1081778000007034,C:\Users\sv5g24\Desktop\Visual_Pareidolia_ERGO103162\participant_images\participant_Saivydas1_20250404_143356\stimuli_grids\Saivydas1_G6_T2_grid.png,,001,6,2,,,,,,,Saivydas1,001,True,
,,,,,3,,9.290991800000484,C:\Users\sv5g24\Desktop\Visual_Pareidolia_ERGO103162\participant_images\participant_Saivydas1_20250404_143356\stimuli_grids\Saivydas1_G6_T3_grid.png,,001,6,3,,,,,,,Saivydas1,001,True,
,,,,,5,,3.9746140000006562,C:\Users\sv5g24\Desktop\Visual_Pareidolia_ERGO103162\participant_images\participant_Saivydas1_20250404_143356\stimuli_grids\Saivydas1_G6_T4_grid.png,,001,6,4,,,,,,,Saivydas1,001,True,
,,,,,4,,3.205878599999778,C:\Users\sv5g24\Desktop\Visual_Pareidolia_ERGO103162\participant_images\participant_Saivydas1_20250404_143356\stimuli_grids\Saivydas1_G6_T5_grid.png,,001,6,5,,,,,,,Saivydas1,001,True,
,,,,,10,,8.591776299999765,C:\Users\sv5g24\Desktop\Visual_Pareidolia_ERGO103162\participant_images\participant_Saivydas1_20250404_143356\stimuli_grids\Saivydas1_G6_T6_grid.png,,001,6,6,,,,,,,Saivydas1,001,True,
,,,,,4,,2.4968454999998357,C:\Users\sv5g24\Desktop\Visual_Pareidolia_ERGO103162\participant_images\participant_Saivydas1_20250404_143356\stimuli_grids\Saivydas1_G6_T7_grid.png,,001,6,7,,,,,,,Saivydas1,001,True,
,,,,,5,,4.069039399999383,C:\Users\sv5g24\Desktop\Visual_Pareidolia_ERGO103162\participant_images\participant_Saivydas1_20250404_143356\stimuli_grids\Saivydas1_G6_T8_grid.png,,001,6,8,,,,,,,Saivydas1,001,True,
,,,,,2,,5.15375529999983,C:\Users\sv5g24\Desktop\Visual_Pareidolia_ERGO103162\participant_images\participant_Saivydas1_20250404_143356\stimuli_grids\Saivydas1_G6_T9_grid.png,,001,6,9,,,,,,,Saivydas1,001,True,
,,,,,6,,3.617658899998787,C:\Users\sv5g24\Desktop\Visual_Pareidolia_ERGO103162\participant_images\participant_Saivydas1_20250404_143356\stimuli_grids\Saivydas1_G6_T10_grid.png,,001,6,10,,,,,,,Saivydas1,001,True,
,,,,,3,,4.506348900000376,C:\Users\sv5g24\Desktop\Visual_Pareidolia_ERGO103162\participant_images\participant_Saivydas1_20250404_143356\stimuli_grids\Saivydas1_G6_T11_grid.png,,001,6,11,,,,,,,Saivydas1,001,True,
,,,,,3,,5.020100199999433,C:\Users\sv5g24\Desktop\Visual_Pareidolia_ERGO103162\participant_images\participant_Saivydas1_20250404_143356\stimuli_grids\Saivydas1_G7_T0_grid.png,,001,7,0,,,,,,,Saivydas1,001,True,
,,,,,4,,8.607782699999007,C:\Users\sv5g24\Desktop\Visual_Pareidolia_ERGO103162\participant_images\participant_Saivydas1_20250404_143356\stimuli_grids\Saivydas1_G7_T1_grid.png,,001,7,1,,,,,,,Saivydas1,001,True,
,,,,,7,,6.719516499999372,C:\Users\sv5g24\Desktop\Visual_Pareidolia_ERGO103162\participant_images\participant_Saivydas1_20250404_143356\stimuli_grids\Saivydas1_G7_T2_grid.png,,001,7,2,,,,,,,Saivydas1,001,True,
,,,,,1,,4.034782699998686,C:\Users\sv5g24\Desktop\Visual_Pareidolia_ERGO103162\participant_images\participant_Saivydas1_20250404_143356\stimuli_grids\Saivydas1_G7_T3_grid.png,,001,7,3,,,,,,,Saivydas1,001,True,
,,,,,7,,4.319627099999707,C:\Users\sv5g24\Desktop\Visual_Pareidolia_ERGO103162\participant_images\participant_Saivydas1_20250404_143356\stimuli_grids\Saivydas1_G7_T4_grid.png,,001,7,4,,,,,,,Saivydas1,001,True,
,,,,,4,,5.3652394999990065,C:\Users\sv5g24\Desktop\Visual_Pareidolia_ERGO103162\participant_images\participant_Saivydas1_20250404_143356\stimuli_grids\Saivydas1_G7_T5_grid.png,,001,7,5,,,,,,,Saivydas1,001,True,
,,,,,7,,7.221378600001117,C:\Users\sv5g24\Desktop\Visual_Pareidolia_ERGO103162\participant_images\participant_Saivydas1_20250404_143356\stimuli_grids\Saivydas1_G7_T6_grid.png,,001,7,6,,,,,,,Saivydas1,001,True,
,,,,,4,,3.9740622999997868,C:\Users\sv5g24\Desktop\Visual_Pareidolia_ERGO103162\participant_images\participant_Saivydas1_20250404_143356\stimuli_grids\Saivydas1_G7_T7_grid.png,,001,7,7,,,,,,,Saivydas1,001,True,
,,,,,8,,5.8354962000012165,C:\Users\sv5g24\Desktop\Visual_Pareidolia_ERGO103162\participant_images\participant_Saivydas1_20250404_143356\stimuli_grids\Saivydas1_G7_T8_grid.png,,001,7,8,,,,,,,Saivydas1,001,True,
,,,,,8,,4.132641399999557,C:\Users\sv5g24\Desktop\Visual_Pareidolia_ERGO103162\participant_images\participant_Saivydas1_20250404_143356\stimuli_grids\Saivydas1_G7_T9_grid.png,,001,7,9,,,,,,,Saivydas1,001,True,
,,,,,2,,4.319113699999434,C:\Users\sv5g24\Desktop\Visual_Pareidolia_ERGO103162\participant_images\participant_Saivydas1_20250404_143356\stimuli_grids\Saivydas1_G7_T10_grid.png,,001,7,10,,,,,,,Saivydas1,001,True,
,,,,,4,,6.763318999999683,C:\Users\sv5g24\Desktop\Visual_Pareidolia_ERGO103162\participant_images\participant_Saivydas1_20250404_143356\stimuli_grids\Saivydas1_G7_T11_grid.png,,001,7,11,,,,,,,Saivydas1,001,True,
,,,,,7,,2.786947599999621,C:\Users\sv5g24\Desktop\Visual_Pareidolia_ERGO103162\participant_images\participant_Saivydas1_20250404_143356\stimuli_grids\Saivydas1_G8_T0_grid.png,,001,8,0,,,,,,,Saivydas1,001,True,
,,,,,8,,5.65768879999996,C:\Users\sv5g24\Desktop\Visual_Pareidolia_ERGO103162\participant_images\participant_Saivydas1_20250404_143356\stimuli_grids\Saivydas1_G8_T1_grid.png,,001,8,1,,,,,,,Saivydas1,001,True,
,,,,,8,,5.454545399999915,C:\Users\sv5g24\Desktop\Visual_Pareidolia_ERGO103162\participant_images\participant_Saivydas1_20250404_143356\stimuli_grids\Saivydas1_G8_T2_grid.png,,001,8,2,,,,,,,Saivydas1,001,True,
,,,,,7,,8.819019799999296,C:\Users\sv5g24\Desktop\Visual_Pareidolia_ERGO103162\participant_images\participant_Saivydas1_20250404_143356\stimuli_grids\Saivydas1_G8_T3_grid.png,,001,8,3,,,,,,,Saivydas1,001,True,
,,,,,1,,5.890881499999523,C:\Users\sv5g24\Desktop\Visual_Pareidolia_ERGO103162\participant_images\participant_Saivydas1_20250404_143356\stimuli_grids\Saivydas1_G8_T4_grid.png,,001,8,4,,,,,,,Saivydas1,001,True,
,,,,,6,,4.10835489999954,C:\Users\sv5g24\Desktop\Visual_Pareidolia_ERGO103162\participant_images\participant_Saivydas1_20250404_143356\stimuli_grids\Saivydas1_G8_T5_grid.png,,001,8,5,,,,,,,Saivydas1,001,True,
,,,,,3,,4.852198300000964,C:\Users\sv5g24\Desktop\Visual_Pareidolia_ERGO103162\participant_images\participant_Saivydas1_20250404_143356\stimuli_grids\Saivydas1_G8_T6_grid.png,,001,8,6,,,,,,,Saivydas1,001,True,
,,,,,1,,5.369785499999125,C:\Users\sv5g24\Desktop\Visual_Pareidolia_ERGO103162\participant_images\participant_Saivydas1_20250404_143356\stimuli_grids\Saivydas1_G8_T7_grid.png,,001,8,7,,,,,,,Saivydas1,001,True,
,,,,,5,,2.286462500000198,C:\Users\sv5g24\Desktop\Visual_Pareidolia_ERGO103162\participant_images\participant_Saivydas1_20250404_143356\stimuli_grids\Saivydas1_G8_T8_grid.png,,001,8,8,,,,,,,Saivydas1,001,True,
,,,,,6,,7.384045300001162,C:\Users\sv5g24\Desktop\Visual_Pareidolia_ERGO103162\participant_images\participant_Saivydas1_20250404_143356\stimuli_grids\Saivydas1_G8_T9_grid.png,,001,8,9,,,,,,,Saivydas1,001,True,
,,,,,1,,9.198807599999782,C:\Users\sv5g24\Desktop\Visual_Pareidolia_ERGO103162\participant_images\participant_Saivydas1_20250404_143356\stimuli_grids\Saivydas1_G8_T10_grid.png,,001,8,10,,,,,,,Saivydas1,001,True,
,,,,,9,,4.448391300000367,C:\Users\sv5g24\Desktop\Visual_Pareidolia_ERGO103162\participant_images\participant_Saivydas1_20250404_143356\stimuli_grids\Saivydas1_G8_T11_grid.png,,001,8,11,,,,,,,Saivydas1,001,True,
,,,,,4,,5.741305999999895,C:\Users\sv5g24\Desktop\Visual_Pareidolia_ERGO103162\participant_images\participant_Saivydas1_20250404_143356\stimuli_grids\Saivydas1_G9_T0_grid.png,,001,9,0,,,,,,,Saivydas1,001,True,
,,,,,5,,4.731748500000322,C:\Users\sv5g24\Desktop\Visual_Pareidolia_ERGO103162\participant_images\participant_Saivydas1_20250404_143356\stimuli_grids\Saivydas1_G9_T1_grid.png,,001,9,1,,,,,,,Saivydas1,001,True,
,,,,,10,,4.868461700001717,C:\Users\sv5g24\Desktop\Visual_Pareidolia_ERGO103162\participant_images\participant_Saivydas1_20250404_143356\stimuli_grids\Saivydas1_G9_T2_grid.png,,001,9,2,,,,,,,Saivydas1,001,True,
,,,,,8,,6.015619300000253,C:\Users\sv5g24\Desktop\Visual_Pareidolia_ERGO103162\participant_images\participant_Saivydas1_20250404_143356\stimuli_grids\Saivydas1_G9_T3_grid.png,,001,9,3,,,,,,,Saivydas1,001,True,
,,,,,2,,2.0076853999999003,C:\Users\sv5g24\Desktop\Visual_Pareidolia_ERGO103162\participant_images\participant_Saivydas1_20250404_143356\stimuli_grids\Saivydas1_G9_T4_grid.png,,001,9,4,,,,,,,Saivydas1,001,True,
,,,,,8,,5.7860827000004065,C:\Users\sv5g24\Desktop\Visual_Pareidolia_ERGO103162\participant_images\participant_Saivydas1_20250404_143356\stimuli_grids\Saivydas1_G9_T5_grid.png,,001,9,5,,,,,,,Saivydas1,001,True,
,,,,,7,,10.397222800000236,C:\Users\sv5g24\Desktop\Visual_Pareidolia_ERGO103162\participant_images\participant_Saivydas1_20250404_143356\stimuli_grids\Saivydas1_G9_T6_grid.png,,001,9,6,,,,,,,Saivydas1,001,True,
,,,,,8,,3.524434699998892,C:\Users\sv5g24\Desktop\Visual_Pareidolia_ERGO103162\participant_images\participant_Saivydas1_20250404_143356\stimuli_grids\Saivydas1_G9_T7_grid.png,,001,9,7,,,,,,,Saivydas1,001,True,
,,,,,9,,5.397582100000363,C:\Users\sv5g24\Desktop\Visual_Pareidolia_ERGO103162\participant_images\participant_Saivydas1_20250404_143356\stimuli_grids\Saivydas1_G9_T8_grid.png,,001,9,8,,,,,,,Saivydas1,001,True,
,,,,,4,,2.6162359999998444,C:\Users\sv5g24\Desktop\Visual_Pareidolia_ERGO103162\participant_images\participant_Saivydas1_20250404_143356\stimuli_grids\Saivydas1_G9_T9_grid.png,,001,9,9,,,,,,,Saivydas1,001,True,
,,,,,2,,4.413309899999149,C:\Users\sv5g24\Desktop\Visual_Pareidolia_ERGO103162\participant_images\participant_Saivydas1_20250404_143356\stimuli_grids\Saivydas1_G9_T10_grid.png,,001,9,10,,,,,,,Saivydas1,001,True,
,,,,,0,,5.65738859999874,C:\Users\sv5g24\Desktop\Visual_Pareidolia_ERGO103162\participant_images\participant_Saivydas1_20250404_143356\stimuli_grids\Saivydas1_G9_T11_grid.png,,001,9,11,,,,,,,Saivydas1,001,True,
,,,,,6,,3.786982400000852,C:\Users\sv5g24\Desktop\Visual_Pareidolia_ERGO103162\participant_images\participant_Saivydas1_20250404_143356\stimuli_grids\Saivydas1_G10_T0_grid.png,,001,10,0,,,,,,,Saivydas1,001,True,
,,,,,5,,1.5155217000010452,C:\Users\sv5g24\Desktop\Visual_Pareidolia_ERGO103162\participant_images\participant_Saivydas1_20250404_143356\stimuli_grids\Saivydas1_G10_T1_grid.png,,001,10,1,,,,,,,Saivydas1,001,True,
,,,,,8,,1.4415265000006912,C:\Users\sv5g24\Desktop\Visual_Pareidolia_ERGO103162\participant_images\participant_Saivydas1_20250404_143356\stimuli_grids\Saivydas1_G10_T2_grid.png,,001,10,2,,,,,,,Saivydas1,001,True,
,,,,,11,,9.021301100001438,C:\Users\sv5g24\Desktop\Visual_Pareidolia_ERGO103162\participant_images\participant_Saivydas1_20250404_143356\stimuli_grids\Saivydas1_G10_T3_grid.png,,001,10,3,,,,,,,Saivydas1,001,True,
,,,,,10,,1.864414100000431,C:\Users\sv5g24\Desktop\Visual_Pareidolia_ERGO103162\participant_images\participant_Saivydas1_20250404_143356\stimuli_grids\Saivydas1_G10_T4_grid.png,,001,10,4,,,,,,,Saivydas1,001,True,
,,,,,7,,6.364039699999921,C:\Users\sv5g24\Desktop\Visual_Pareidolia_ERGO103162\participant_images\participant_Saivydas1_20250404_143356\stimuli_grids\Saivydas1_G10_T5_grid.png,,001,10,5,,,,,,,Saivydas1,001,True,
,,,,,11,,1.4512666999999055,C:\Users\sv5g24\Desktop\Visual_Pareidolia_ERGO103162\participant_images\participant_Saivydas1_20250404_143356\stimuli_grids\Saivydas1_G10_T6_grid.png,,001,10,6,,,,,,,Saivydas1,001,True,
,,,,,4,,2.838358099999823,C:\Users\sv5g24\Desktop\Visual_Pareidolia_ERGO103162\participant_images\participant_Saivydas1_20250404_143356\stimuli_grids\Saivydas1_G10_T7_grid.png,,001,10,7,,,,,,,Saivydas1,001,True,
,,,,,2,,3.0461759000008897,C:\Users\sv5g24\Desktop\Visual_Pareidolia_ERGO103162\participant_images\participant_Saivydas1_20250404_143356\stimuli_grids\Saivydas1_G10_T8_grid.png,,001,10,8,,,,,,,Saivydas1,001,True,
,,,,,5,,1.336869900000238,C:\Users\sv5g24\Desktop\Visual_Pareidolia_ERGO103162\participant_images\participant_Saivydas1_20250404_143356\stimuli_grids\Saivydas1_G10_T9_grid.png,,001,10,9,,,,,,,Saivydas1,001,True,
,,,,,0,,2.837054399999033,C:\Users\sv5g24\Desktop\Visual_Pareidolia_ERGO103162\participant_images\participant_Saivydas1_20250404_143356\stimuli_grids\Saivydas1_G10_T10_grid.png,,001,10,10,,,,,,,Saivydas1,001,True,
,,,,,6,,1.8580146000003879,C:\Users\sv5g24\Desktop\Visual_Pareidolia_ERGO103162\participant_images\participant_Saivydas1_20250404_143356\stimuli_grids\Saivydas1_G10_T11_grid.png,,001,10,11,,,,,,,Saivydas1,001,True,
,,,,,8,,2.1368741000005684,C:\Users\sv5g24\Desktop\Visual_Pareidolia_ERGO103162\participant_images\participant_Saivydas1_20250404_143356\stimuli_grids\Saivydas1_G11_T0_grid.png,,001,11,0,,,,,,,Saivydas1,001,True,
,,,,,8,,5.814730500000223,C:\Users\sv5g24\Desktop\Visual_Pareidolia_ERGO103162\participant_images\participant_Saivydas1_20250404_143356\stimuli_grids\Saivydas1_G11_T1_grid.png,,001,11,1,,,,,,,Saivydas1,001,True,
,,,,,2,,1.5233680000001186,C:\Users\sv5g24\Desktop\Visual_Pareidolia_ERGO103162\participant_images\participant_Saivydas1_20250404_143356\stimuli_grids\Saivydas1_G11_T2_grid.png,,001,11,2,,,,,,,Saivydas1,001,True,
,,,,,1,,2.0967780999999377,C:\Users\sv5g24\Desktop\Visual_Pareidolia_ERGO103162\participant_images\participant_Saivydas1_20250404_143356\stimuli_grids\Saivydas1_G11_T3_grid.png,,001,11,3,,,,,,,Saivydas1,001,True,
,,,,,10,,1.7063261000002967,C:\Users\sv5g24\Desktop\Visual_Pareidolia_ERGO103162\participant_images\participant_Saivydas1_20250404_143356\stimuli_grids\Saivydas1_G11_T4_grid.png,,001,11,4,,,,,,,Saivydas1,001,True,
,,,,,6,,1.6876431000000593,C:\Users\sv5g24\Desktop\Visual_Pareidolia_ERGO103162\participant_images\participant_Saivydas1_20250404_143356\stimuli_grids\Saivydas1_G11_T5_grid.png,,001,11,5,,,,,,,Saivydas1,001,True,
,,,,,8,,3.485142100000303,C:\Users\sv5g24\Desktop\Visual_Pareidolia_ERGO103162\participant_images\participant_Saivydas1_20250404_143356\stimuli_grids\Saivydas1_G11_T6_grid.png,,001,11,6,,,,,,,Saivydas1,001,True,
,,,,,4,,2.7745807000010245,C:\Users\sv5g24\Desktop\Visual_Pareidolia_ERGO103162\participant_images\participant_Saivydas1_20250404_143356\stimuli_grids\Saivydas1_G11_T7_grid.png,,001,11,7,,,,,,,Saivydas1,001,True,
,,,,,8,,5.320592199999737,C:\Users\sv5g24\Desktop\Visual_Pareidolia_ERGO103162\participant_images\participant_Saivydas1_20250404_143356\stimuli_grids\Saivydas1_G11_T8_grid.png,,001,11,8,,,,,,,Saivydas1,001,True,
,,,,,0,,6.585384500000146,C:\Users\sv5g24\Desktop\Visual_Pareidolia_ERGO103162\participant_images\participant_Saivydas1_20250404_143356\stimuli_grids\Saivydas1_G11_T9_grid.png,,001,11,9,,,,,,,Saivydas1,001,True,
,,,,,4,,3.280427100000452,C:\Users\sv5g24\Desktop\Visual_Pareidolia_ERGO103162\participant_images\participant_Saivydas1_20250404_143356\stimuli_grids\Saivydas1_G11_T10_grid.png,,001,11,10,,,,,,,Saivydas1,001,True,
,,,,,3,,16.56755730000077,C:\Users\sv5g24\Desktop\Visual_Pareidolia_ERGO103162\participant_images\participant_Saivydas1_20250404_143356\stimuli_grids\Saivydas1_G11_T11_grid.png,,001,11,11,,,,,,,Saivydas1,001,True,
,,,,,,,,,,001,G2,,rating,mid,P12295,S1,organised_by_imagery\mid\P12295_S1_G2_composite.tiff,0,Saivydas1,001,True,
,,,,,,,,,,001,G2,,rating,high,P11974,S2,organised_by_imagery\high\P11974_S2_G2_composite.tiff,7.4074074074074066,Saivydas1,001,True,
,,,,,,,,,,001,G6,,rating,mid,P12298,S2,organised_by_imagery\mid\P12298_S2_G6_composite.tiff,24.382716049382715,Saivydas1,001,True,
,,,,,,,,,,001,G6,,rating,high,P11974,S1,organised_by_imagery\high\P11974_S1_G6_composite.tiff,57.25308641975309,Saivydas1,001,True,
,,,,,,,,,,001,G2,,rating,low,P12682,S2,organised_by_imagery\low\P12682_S2_G2_composite.tiff,27.00617283950617,Saivydas1,001,True,
,,,,,,,,,,001,G2,,rating,high,P12574,S2,organised_by_imagery\high\P12574_S2_G2_composite.tiff,21.296296296296298,Saivydas1,001,True,
,,,,,,,,,,001,G6,,rating,mid,P13153,S2,organised_by_imagery\mid\P13153_S2_G6_composite.tiff,0,Saivydas1,001,True,
,,,,,,,,,,001,G6,,rating,high,P11935,S2,organised_by_imagery\high\P11935_S2_G6_composite.tiff,0,Saivydas1,001,True,
,,,,,,,,,,001,G6,,rating,low,P12028,S1,organised_by_imagery\low\P12028_S1_G6_composite.tiff,14.814814814814813,Saivydas1,001,True,
,,,,,,,,,,001,G2,,rating,high,P12574,S1,organised_by_imagery\high\P12574_S1_G2_composite.tiff,0,Saivydas1,001,True,
,,,,,,,,,,001,G2,,rating,high,P11935,S1,organised_by_imagery\high\P11935_S1_G2_composite.tiff,0,Saivydas1,001,True,
,,,,,,,,,,001,G2,,rating,mid,P12298,S1,organised_by_imagery\mid\P12298_S1_G2_composite.tiff,0,Saivydas1,001,True,
,,,,,,,,,,001,G6,,rating,low,P12682,S1,organised_by_imagery\low\P12682_S1_G6_composite.tiff,16.666666666666668,Saivydas1,001,True,
,,,,,,,,,,001,G6,,rating,high,P11974,S2,organised_by_imagery\high\P11974_S2_G6_composite.tiff,0,Saivydas1,001,True,
,,,,,,,,,,001,G2,,rating,high,P4739,S1,organised_by_imagery\high\P4739_S1_G2_composite.tiff,2.1604938271604923,Saivydas1,001,True,
,,,,,,,,,,001,G2,,rating,mid,P13597,S1,organised_by_imagery\mid\P13597_S1_G2_composite.tiff,60.95679012345679,Saivydas1,001,True,
,,,,,,,,,,001,G2,,rating,low,P12028,S1,organised_by_imagery\low\P12028_S1_G2_composite.tiff,0,Saivydas1,001,True,
,,,,,,,,,,001,G2,,rating,low,P12682,S1,organised_by_imagery\low\P12682_S1_G2_composite.tiff,4.012345679012347,Saivydas1,001,True,
,,,,,,,,,,001,G6,,rating,low,P13102,S2,organised_by_imagery\low\P13102_S2_G6_composite.tiff,0,Saivydas1,001,True,
,,,,,,,,,,001,G6,,rating,high,P4739,S1,organised_by_imagery\high\P4739_S1_G6_composite.tiff,4.629629629629628,Saivydas1,001,True,
,,,,,,,,,,001,G2,,rating,mid,P13153,S1,organised_by_imagery\mid\P13153_S1_G2_composite.tiff,0.15432098765432167,Saivydas1,001,True,
,,,,,,,,,,001,G6,,rating,low,P12028,S2,organised_by_imagery\low\P12028_S2_G6_composite.tiff,6.172839506172839,Saivydas1,001,True,
,,,,,,,,,,001,G6,,rating,high,P12574,S1,organised_by_imagery\high\P12574_S1_G6_composite.tiff,7.4074074074074066,Saivydas1,001,True,
,,,,,,,,,,001,G6,,rating,mid,P12295,S2,organised_by_imagery\mid\P12295_S2_G6_composite.tiff,28.395061728395067,Saivydas1,001,True,
,,,,,,,,,,001,G2,,rating,mid,P12295,S2,organised_by_imagery\mid\P12295_S2_G2_composite.tiff,4.32098765432099,Saivydas1,001,True,
,,,,,,,,,,001,G2,,rating,mid,P13186,S2,organised_by_imagery\mid\P13186_S2_G2_composite.tiff,6.481481481481483,Saivydas1,001,True,
,,,,,,,,,,001,G6,,rating,mid,P13153,S1,organised_by_imagery\mid\P13153_S1_G6_composite.tiff,65.27777777777779,Saivydas1,001,True,
,,,,,,,,,,001,G6,,rating,mid,P13186,S1,organised_by_imagery\mid\P13186_S1_G6_composite.tiff,9.10493827160494,Saivydas1,001,True,
,,,,,,,,,,001,G6,,rating,mid,P12070,S2,organised_by_imagery\mid\P12070_S2_G6_composite.tiff,57.870370370370374,Saivydas1,001,True,
,,,,,,,,,,001,G6,,rating,low,P13336,S1,organised_by_imagery\low\P13336_S1_G6_composite.tiff,10.95679012345679,Saivydas1,001,True,
,,,,,,,,,,001,G2,,rating,high,P11935,S2,organised_by_imagery\high\P11935_S2_G2_composite.tiff,9.567901234567898,Saivydas1,001,True,
,,,,,,,,,,001,G6,,rating,high,P12574,S2,organised_by_imagery\high\P12574_S2_G6_composite.tiff,7.4074074074074066,Saivydas1,001,True,
,,,,,,,,,,001,G2,,rating,mid,P12070,S2,organised_by_imagery\mid\P12070_S2_G2_composite.tiff,5.709876543209874,Saivydas1,001,True,
,,,,,,,,,,001,G6,,rating,high,P11935,S1,organised_by_imagery\high\P11935_S1_G6_composite.tiff,3.5493827160493763,Saivydas1,001,True,
,,,,,,,,,,001,G2,,rating,high,P11974,S1,organised_by_imagery\high\P11974_S1_G2_composite.tiff,2.777777777777779,Saivydas1,001,True,
,,,,,,,,,,001,G2,,rating,mid,P12070,S1,organised_by_imagery\mid\P12070_S1_G2_composite.tiff,3.39506172839506,Saivydas1,001,True,
,,,,,,,,,,001,G2,,rating,mid,P12298,S2,organised_by_imagery\mid\P12298_S2_G2_composite.tiff,4.32098765432099,Saivydas1,001,True,
,,,,,,,,,,001,G2,,rating,mid,P13186,S1,organised_by_imagery\mid\P13186_S1_G2_composite.tiff,4.475308641975307,Saivydas1,001,True,
,,,,,,,,,,001,G2,,rating,high,P4739,S2,organised_by_imagery\high\P4739_S2_G2_composite.tiff,4.166666666666669,Saivydas1,001,True,
,,,,,,,,,,001,G6,,rating,low,P13336,S2,organised_by_imagery\low\P13336_S2_G6_composite.tiff,5.0925925925925934,Saivydas1,001,True,
,,,,,,,,,,001,G2,,rating,low,P13102,S2,organised_by_imagery\low\P13102_S2_G2_composite.tiff,2.6234567901234573,Saivydas1,001,True,
,,,,,,,,,,001,G6,,rating,mid,P12070,S1,organised_by_imagery\mid\P12070_S1_G6_composite.tiff,6.172839506172839,Saivydas1,001,True,
,,,,,,,,,,001,G2,,rating,mid,P12286,S2,organised_by_imagery\mid\P12286_S2_G2_composite.tiff,0,Saivydas1,001,True,
,,,,,,,,,,001,G6,,rating,high,P4739,S2,organised_by_imagery\high\P4739_S2_G6_composite.tiff,4.475308641975307,Saivydas1,001,True,
,,,,,,,,,,001,G6,,rating,mid,P12295,S1,organised_by_imagery\mid\P12295_S1_G6_composite.tiff,4.166666666666669,Saivydas1,001,True,
,,,,,,,,,,001,G6,,rating,mid,P12298,S1,organised_by_imagery\mid\P12298_S1_G6_composite.tiff,1.3888888888888895,Saivydas1,001,True,
,,,,,,,,,,001,G2,,rating,mid,P12286,S1,organised_by_imagery\mid\P12286_S1_G2_composite.tiff,4.32098765432099,Saivydas1,001,True,
,,,,,,,,,,001,G2,,rating,low,P13336,S2,organised_by_imagery\low\P13336_S2_G2_composite.tiff,2.0061728395061706,Saivydas1,001,True,
,,,,,,,,,,001,G6,,rating,mid,P13597,S2,organised_by_imagery\mid\P13597_S2_G6_composite.tiff,74.53703703703704,Saivydas1,001,True,
,,,,,,,,,,001,G6,,rating,mid,P13186,S2,organised_by_imagery\mid\P13186_S2_G6_composite.tiff,5.0925925925925934,Saivydas1,001,True,
,,,,,,,,,,001,G2,,rating,low,P13102,S1,organised_by_imagery\low\P13102_S1_G2_composite.tiff,4.475308641975307,Saivydas1,001,True,
,,,,,,,,,,001,G2,,rating,low,P12028,S2,organised_by_imagery\low\P12028_S2_G2_composite.tiff,3.7037037037037033,Saivydas1,001,True,
,,,,,,,,,,001,G2,,rating,low,P13336,S1,organised_by_imagery\low\P13336_S1_G2_composite.tiff,7.098765432098764,Saivydas1,001,True,
,,,,,,,,,,001,G6,,rating,mid,P12286,S1,organised_by_imagery\mid\P12286_S1_G6_composite.tiff,3.8580246913580254,Saivydas1,001,True,
,,,,,,,,,,001,G6,,rating,mid,P13597,S1,organised_by_imagery\mid\P13597_S1_G6_composite.tiff,85.64814814814814,Saivydas1,001,True,
,,,,,,,,,,001,G2,,rating,mid,P13597,S2,organised_by_imagery\mid\P13597_S2_G2_composite.tiff,0.7716049382716028,Saivydas1,001,True,
,,,,,,,,,,001,G6,,rating,low,P12682,S2,organised_by_imagery\low\P12682_S2_G6_composite.tiff,39.50617283950617,Saivydas1,001,True,
,,,,,,,,,,001,G2,,rating,mid,P13153,S2,organised_by_imagery\mid\P13153_S2_G2_composite.tiff,6.172839506172839,Saivydas1,001,True,
,,,,,,,,,,001,G6,,rating,mid,P12286,S2,organised_by_imagery\mid\P12286_S2_G6_composite.tiff,6.944444444444442,Saivydas1,001,True,
,,,,,,,,,,001,G6,,rating,low,P13102,S1,organised_by_imagery\low\P13102_S1_G6_composite.tiff,4.32098765432099,Saivydas1,001,True,
