thisRow.t,notes,trial_type,trial_number,target_index,selected_id,correct,rt,stimuli_grid,stimuli_csv,session,generation,trial,task,participant_class,participant_id,image_session,image_path,rating,participant,session,fullscreen,
,,training,1,8,8,True,3.1957017999993695,C:\Users\sv5g24\Desktop\Visual_Pareidolia_ERGO103162\participant_images\participant_Saivydas2_20250404_150355\stimuli_grids\Saivydas2_Gtraining_T1_grid.png,"['C:\\Users\\sv5g24\\Desktop\\Visual_Pareidolia_ERGO103162\\participant_images\\participant_Saivydas2_20250404_150355\\stimuli_csv\\Saivydas2_training_T1_stim0.csv', 'C:\\Users\\sv5g24\\Desktop\\Visual_Pareidolia_ERGO103162\\participant_images\\participant_Saivydas2_20250404_150355\\stimuli_csv\\Saivydas2_training_T1_stim1.csv', 'C:\\Users\\sv5g24\\Desktop\\Visual_Pareidolia_ERGO103162\\participant_images\\participant_Saivydas2_20250404_150355\\stimuli_csv\\Saivydas2_training_T1_stim2.csv', 'C:\\Users\\sv5g24\\Desktop\\Visual_Pareidolia_ERGO103162\\participant_images\\participant_Saivydas2_20250404_150355\\stimuli_csv\\Saivydas2_training_T1_stim3.csv', 'C:\\Users\\sv5g24\\Desktop\\Visual_Pareidolia_ERGO103162\\participant_images\\participant_Saivydas2_20250404_150355\\stimuli_csv\\Saivydas2_training_T1_stim4.csv', 'C:\\Users\\sv5g24\\Desktop\\Visual_Pareidolia_ERGO103162\\participant_images\\participant_Saivydas2_20250404_150355\\stimuli_csv\\Saivydas2_training_T1_stim5.csv', 'C:\\Users\\sv5g24\\Desktop\\Visual_Pareidolia_ERGO103162\\participant_images\\participant_Saivydas2_20250404_150355\\stimuli_csv\\Saivydas2_training_T1_stim6.csv', 'C:\\Users\\sv5g24\\Desktop\\Visual_Pareidolia_ERGO103162\\participant_images\\participant_Saivydas2_20250404_150355\\stimuli_csv\\Saivydas2_training_T1_stim7.csv', 'C:\\Users\\sv5g24\\Desktop\\Visual_Pareidolia_ERGO103162\\participant_images\\participant_Saivydas2_20250404_150355\\stimuli_csv\\Saivydas2_training_T1_stim8.csv', 'C:\\Users\\sv5g24\\Desktop\\Visual_Pareidolia_ERGO103162\\participant_images\\participant_Saivydas2_20250404_150355\\stimuli_csv\\Saivydas2_training_T1_stim9.csv', 'C:\\Users\\sv5g24\\Desktop\\Visual_Pareidolia_ERGO103162\\participant_images\\participant_Saivydas2_20250404_150355\\stimuli_csv\\Saivydas2_training_T1_stim10.csv', 'C:\\Users\\sv5g24\\Desktop\\Visual_Pareidolia_ERGO103162\\participant_images\\participant_Saivydas2_20250404_150355\\stimuli_csv\\Saivydas2_training_T1_stim11.csv']",001,,,,,,,,,Saivydas2,001,True,
,,training,2,3,3,True,0.5785090000008495,C:\Users\sv5g24\Desktop\Visual_Pareidolia_ERGO103162\participant_images\participant_Saivydas2_20250404_150355\stimuli_grids\Saivydas2_Gtraining_T2_grid.png,"['C:\\Users\\sv5g24\\Desktop\\Visual_Pareidolia_ERGO103162\\participant_images\\participant_Saivydas2_20250404_150355\\stimuli_csv\\Saivydas2_training_T2_stim0.csv', 'C:\\Users\\sv5g24\\Desktop\\Visual_Pareidolia_ERGO103162\\participant_images\\participant_Saivydas2_20250404_150355\\stimuli_csv\\Saivydas2_training_T2_stim1.csv', 'C:\\Users\\sv5g24\\Desktop\\Visual_Pareidolia_ERGO103162\\participant_images\\participant_Saivydas2_20250404_150355\\stimuli_csv\\Saivydas2_training_T2_stim2.csv', 'C:\\Users\\sv5g24\\Desktop\\Visual_Pareidolia_ERGO103162\\participant_images\\participant_Saivydas2_20250404_150355\\stimuli_csv\\Saivydas2_training_T2_stim3.csv', 'C:\\Users\\sv5g24\\Desktop\\Visual_Pareidolia_ERGO103162\\participant_images\\participant_Saivydas2_20250404_150355\\stimuli_csv\\Saivydas2_training_T2_stim4.csv', 'C:\\Users\\sv5g24\\Desktop\\Visual_Pareidolia_ERGO103162\\participant_images\\participant_Saivydas2_20250404_150355\\stimuli_csv\\Saivydas2_training_T2_stim5.csv', 'C:\\Users\\sv5g24\\Desktop\\Visual_Pareidolia_ERGO103162\\participant_images\\participant_Saivydas2_20250404_150355\\stimuli_csv\\Saivydas2_training_T2_stim6.csv', 'C:\\Users\\sv5g24\\Desktop\\Visual_Pareidolia_ERGO103162\\participant_images\\participant_Saivydas2_20250404_150355\\stimuli_csv\\Saivydas2_training_T2_stim7.csv', 'C:\\Users\\sv5g24\\Desktop\\Visual_Pareidolia_ERGO103162\\participant_images\\participant_Saivydas2_20250404_150355\\stimuli_csv\\Saivydas2_training_T2_stim8.csv', 'C:\\Users\\sv5g24\\Desktop\\Visual_Pareidolia_ERGO103162\\participant_images\\participant_Saivydas2_20250404_150355\\stimuli_csv\\Saivydas2_training_T2_stim9.csv', 'C:\\Users\\sv5g24\\Desktop\\Visual_Pareidolia_ERGO103162\\participant_images\\participant_Saivydas2_20250404_150355\\stimuli_csv\\Saivydas2_training_T2_stim10.csv', 'C:\\Users\\sv5g24\\Desktop\\Visual_Pareidolia_ERGO103162\\participant_images\\participant_Saivydas2_20250404_150355\\stimuli_csv\\Saivydas2_training_T2_stim11.csv']",001,,,,,,,,,Saivydas2,001,True,
,,training,3,9,9,True,0.646910299999945,C:\Users\sv5g24\Desktop\Visual_Pareidolia_ERGO103162\participant_images\participant_Saivydas2_20250404_150355\stimuli_grids\Saivydas2_Gtraining_T3_grid.png,"['C:\\Users\\sv5g24\\Desktop\\Visual_Pareidolia_ERGO103162\\participant_images\\participant_Saivydas2_20250404_150355\\stimuli_csv\\Saivydas2_training_T3_stim0.csv', 'C:\\Users\\sv5g24\\Desktop\\Visual_Pareidolia_ERGO103162\\participant_images\\participant_Saivydas2_20250404_150355\\stimuli_csv\\Saivydas2_training_T3_stim1.csv', 'C:\\Users\\sv5g24\\Desktop\\Visual_Pareidolia_ERGO103162\\participant_images\\participant_Saivydas2_20250404_150355\\stimuli_csv\\Saivydas2_training_T3_stim2.csv', 'C:\\Users\\sv5g24\\Desktop\\Visual_Pareidolia_ERGO103162\\participant_images\\participant_Saivydas2_20250404_150355\\stimuli_csv\\Saivydas2_training_T3_stim3.csv', 'C:\\Users\\sv5g24\\Desktop\\Visual_Pareidolia_ERGO103162\\participant_images\\participant_Saivydas2_20250404_150355\\stimuli_csv\\Saivydas2_training_T3_stim4.csv', 'C:\\Users\\sv5g24\\Desktop\\Visual_Pareidolia_ERGO103162\\participant_images\\participant_Saivydas2_20250404_150355\\stimuli_csv\\Saivydas2_training_T3_stim5.csv', 'C:\\Users\\sv5g24\\Desktop\\Visual_Pareidolia_ERGO103162\\participant_images\\participant_Saivydas2_20250404_150355\\stimuli_csv\\Saivydas2_training_T3_stim6.csv', 'C:\\Users\\sv5g24\\Desktop\\Visual_Pareidolia_ERGO103162\\participant_images\\participant_Saivydas2_20250404_150355\\stimuli_csv\\Saivydas2_training_T3_stim7.csv', 'C:\\Users\\sv5g24\\Desktop\\Visual_Pareidolia_ERGO103162\\participant_images\\participant_Saivydas2_20250404_150355\\stimuli_csv\\Saivydas2_training_T3_stim8.csv', 'C:\\Users\\sv5g24\\Desktop\\Visual_Pareidolia_ERGO103162\\participant_images\\participant_Saivydas2_20250404_150355\\stimuli_csv\\Saivydas2_training_T3_stim9.csv', 'C:\\Users\\sv5g24\\Desktop\\Visual_Pareidolia_ERGO103162\\participant_images\\participant_Saivydas2_20250404_150355\\stimuli_csv\\Saivydas2_training_T3_stim10.csv', 'C:\\Users\\sv5g24\\Desktop\\Visual_Pareidolia_ERGO103162\\participant_images\\participant_Saivydas2_20250404_150355\\stimuli_csv\\Saivydas2_training_T3_stim11.csv']",001,,,,,,,,,Saivydas2,001,True,
,,training,4,0,0,True,1.0287982999998349,C:\Users\sv5g24\Desktop\Visual_Pareidolia_ERGO103162\participant_images\participant_Saivydas2_20250404_150355\stimuli_grids\Saivydas2_Gtraining_T4_grid.png,"['C:\\Users\\sv5g24\\Desktop\\Visual_Pareidolia_ERGO103162\\participant_images\\participant_Saivydas2_20250404_150355\\stimuli_csv\\Saivydas2_training_T4_stim0.csv', 'C:\\Users\\sv5g24\\Desktop\\Visual_Pareidolia_ERGO103162\\participant_images\\participant_Saivydas2_20250404_150355\\stimuli_csv\\Saivydas2_training_T4_stim1.csv', 'C:\\Users\\sv5g24\\Desktop\\Visual_Pareidolia_ERGO103162\\participant_images\\participant_Saivydas2_20250404_150355\\stimuli_csv\\Saivydas2_training_T4_stim2.csv', 'C:\\Users\\sv5g24\\Desktop\\Visual_Pareidolia_ERGO103162\\participant_images\\participant_Saivydas2_20250404_150355\\stimuli_csv\\Saivydas2_training_T4_stim3.csv', 'C:\\Users\\sv5g24\\Desktop\\Visual_Pareidolia_ERGO103162\\participant_images\\participant_Saivydas2_20250404_150355\\stimuli_csv\\Saivydas2_training_T4_stim4.csv', 'C:\\Users\\sv5g24\\Desktop\\Visual_Pareidolia_ERGO103162\\participant_images\\participant_Saivydas2_20250404_150355\\stimuli_csv\\Saivydas2_training_T4_stim5.csv', 'C:\\Users\\sv5g24\\Desktop\\Visual_Pareidolia_ERGO103162\\participant_images\\participant_Saivydas2_20250404_150355\\stimuli_csv\\Saivydas2_training_T4_stim6.csv', 'C:\\Users\\sv5g24\\Desktop\\Visual_Pareidolia_ERGO103162\\participant_images\\participant_Saivydas2_20250404_150355\\stimuli_csv\\Saivydas2_training_T4_stim7.csv', 'C:\\Users\\sv5g24\\Desktop\\Visual_Pareidolia_ERGO103162\\participant_images\\participant_Saivydas2_20250404_150355\\stimuli_csv\\Saivydas2_training_T4_stim8.csv', 'C:\\Users\\sv5g24\\Desktop\\Visual_Pareidolia_ERGO103162\\participant_images\\participant_Saivydas2_20250404_150355\\stimuli_csv\\Saivydas2_training_T4_stim9.csv', 'C:\\Users\\sv5g24\\Desktop\\Visual_Pareidolia_ERGO103162\\participant_images\\participant_Saivydas2_20250404_150355\\stimuli_csv\\Saivydas2_training_T4_stim10.csv', 'C:\\Users\\sv5g24\\Desktop\\Visual_Pareidolia_ERGO103162\\participant_images\\participant_Saivydas2_20250404_150355\\stimuli_csv\\Saivydas2_training_T4_stim11.csv']",001,,,,,,,,,Saivydas2,001,True,
,,training,5,7,7,True,0.8637619000000996,C:\Users\sv5g24\Desktop\Visual_Pareidolia_ERGO103162\participant_images\participant_Saivydas2_20250404_150355\stimuli_grids\Saivydas2_Gtraining_T5_grid.png,"['C:\\Users\\sv5g24\\Desktop\\Visual_Pareidolia_ERGO103162\\participant_images\\participant_Saivydas2_20250404_150355\\stimuli_csv\\Saivydas2_training_T5_stim0.csv', 'C:\\Users\\sv5g24\\Desktop\\Visual_Pareidolia_ERGO103162\\participant_images\\participant_Saivydas2_20250404_150355\\stimuli_csv\\Saivydas2_training_T5_stim1.csv', 'C:\\Users\\sv5g24\\Desktop\\Visual_Pareidolia_ERGO103162\\participant_images\\participant_Saivydas2_20250404_150355\\stimuli_csv\\Saivydas2_training_T5_stim2.csv', 'C:\\Users\\sv5g24\\Desktop\\Visual_Pareidolia_ERGO103162\\participant_images\\participant_Saivydas2_20250404_150355\\stimuli_csv\\Saivydas2_training_T5_stim3.csv', 'C:\\Users\\sv5g24\\Desktop\\Visual_Pareidolia_ERGO103162\\participant_images\\participant_Saivydas2_20250404_150355\\stimuli_csv\\Saivydas2_training_T5_stim4.csv', 'C:\\Users\\sv5g24\\Desktop\\Visual_Pareidolia_ERGO103162\\participant_images\\participant_Saivydas2_20250404_150355\\stimuli_csv\\Saivydas2_training_T5_stim5.csv', 'C:\\Users\\sv5g24\\Desktop\\Visual_Pareidolia_ERGO103162\\participant_images\\participant_Saivydas2_20250404_150355\\stimuli_csv\\Saivydas2_training_T5_stim6.csv', 'C:\\Users\\sv5g24\\Desktop\\Visual_Pareidolia_ERGO103162\\participant_images\\participant_Saivydas2_20250404_150355\\stimuli_csv\\Saivydas2_training_T5_stim7.csv', 'C:\\Users\\sv5g24\\Desktop\\Visual_Pareidolia_ERGO103162\\participant_images\\participant_Saivydas2_20250404_150355\\stimuli_csv\\Saivydas2_training_T5_stim8.csv', 'C:\\Users\\sv5g24\\Desktop\\Visual_Pareidolia_ERGO103162\\participant_images\\participant_Saivydas2_20250404_150355\\stimuli_csv\\Saivydas2_training_T5_stim9.csv', 'C:\\Users\\sv5g24\\Desktop\\Visual_Pareidolia_ERGO103162\\participant_images\\participant_Saivydas2_20250404_150355\\stimuli_csv\\Saivydas2_training_T5_stim10.csv', 'C:\\Users\\sv5g24\\Desktop\\Visual_Pareidolia_ERGO103162\\participant_images\\participant_Saivydas2_20250404_150355\\stimuli_csv\\Saivydas2_training_T5_stim11.csv']",001,,,,,,,,,Saivydas2,001,True,
,,training,6,5,5,True,0.6632365999994363,C:\Users\sv5g24\Desktop\Visual_Pareidolia_ERGO103162\participant_images\participant_Saivydas2_20250404_150355\stimuli_grids\Saivydas2_Gtraining_T6_grid.png,"['C:\\Users\\sv5g24\\Desktop\\Visual_Pareidolia_ERGO103162\\participant_images\\participant_Saivydas2_20250404_150355\\stimuli_csv\\Saivydas2_training_T6_stim0.csv', 'C:\\Users\\sv5g24\\Desktop\\Visual_Pareidolia_ERGO103162\\participant_images\\participant_Saivydas2_20250404_150355\\stimuli_csv\\Saivydas2_training_T6_stim1.csv', 'C:\\Users\\sv5g24\\Desktop\\Visual_Pareidolia_ERGO103162\\participant_images\\participant_Saivydas2_20250404_150355\\stimuli_csv\\Saivydas2_training_T6_stim2.csv', 'C:\\Users\\sv5g24\\Desktop\\Visual_Pareidolia_ERGO103162\\participant_images\\participant_Saivydas2_20250404_150355\\stimuli_csv\\Saivydas2_training_T6_stim3.csv', 'C:\\Users\\sv5g24\\Desktop\\Visual_Pareidolia_ERGO103162\\participant_images\\participant_Saivydas2_20250404_150355\\stimuli_csv\\Saivydas2_training_T6_stim4.csv', 'C:\\Users\\sv5g24\\Desktop\\Visual_Pareidolia_ERGO103162\\participant_images\\participant_Saivydas2_20250404_150355\\stimuli_csv\\Saivydas2_training_T6_stim5.csv', 'C:\\Users\\sv5g24\\Desktop\\Visual_Pareidolia_ERGO103162\\participant_images\\participant_Saivydas2_20250404_150355\\stimuli_csv\\Saivydas2_training_T6_stim6.csv', 'C:\\Users\\sv5g24\\Desktop\\Visual_Pareidolia_ERGO103162\\participant_images\\participant_Saivydas2_20250404_150355\\stimuli_csv\\Saivydas2_training_T6_stim7.csv', 'C:\\Users\\sv5g24\\Desktop\\Visual_Pareidolia_ERGO103162\\participant_images\\participant_Saivydas2_20250404_150355\\stimuli_csv\\Saivydas2_training_T6_stim8.csv', 'C:\\Users\\sv5g24\\Desktop\\Visual_Pareidolia_ERGO103162\\participant_images\\participant_Saivydas2_20250404_150355\\stimuli_csv\\Saivydas2_training_T6_stim9.csv', 'C:\\Users\\sv5g24\\Desktop\\Visual_Pareidolia_ERGO103162\\participant_images\\participant_Saivydas2_20250404_150355\\stimuli_csv\\Saivydas2_training_T6_stim10.csv', 'C:\\Users\\sv5g24\\Desktop\\Visual_Pareidolia_ERGO103162\\participant_images\\participant_Saivydas2_20250404_150355\\stimuli_csv\\Saivydas2_training_T6_stim11.csv']",001,,,,,,,,,Saivydas2,001,True,
,,training,7,2,2,True,0.511161299999003,C:\Users\sv5g24\Desktop\Visual_Pareidolia_ERGO103162\participant_images\participant_Saivydas2_20250404_150355\stimuli_grids\Saivydas2_Gtraining_T7_grid.png,"['C:\\Users\\sv5g24\\Desktop\\Visual_Pareidolia_ERGO103162\\participant_images\\participant_Saivydas2_20250404_150355\\stimuli_csv\\Saivydas2_training_T7_stim0.csv', 'C:\\Users\\sv5g24\\Desktop\\Visual_Pareidolia_ERGO103162\\participant_images\\participant_Saivydas2_20250404_150355\\stimuli_csv\\Saivydas2_training_T7_stim1.csv', 'C:\\Users\\sv5g24\\Desktop\\Visual_Pareidolia_ERGO103162\\participant_images\\participant_Saivydas2_20250404_150355\\stimuli_csv\\Saivydas2_training_T7_stim2.csv', 'C:\\Users\\sv5g24\\Desktop\\Visual_Pareidolia_ERGO103162\\participant_images\\participant_Saivydas2_20250404_150355\\stimuli_csv\\Saivydas2_training_T7_stim3.csv', 'C:\\Users\\sv5g24\\Desktop\\Visual_Pareidolia_ERGO103162\\participant_images\\participant_Saivydas2_20250404_150355\\stimuli_csv\\Saivydas2_training_T7_stim4.csv', 'C:\\Users\\sv5g24\\Desktop\\Visual_Pareidolia_ERGO103162\\participant_images\\participant_Saivydas2_20250404_150355\\stimuli_csv\\Saivydas2_training_T7_stim5.csv', 'C:\\Users\\sv5g24\\Desktop\\Visual_Pareidolia_ERGO103162\\participant_images\\participant_Saivydas2_20250404_150355\\stimuli_csv\\Saivydas2_training_T7_stim6.csv', 'C:\\Users\\sv5g24\\Desktop\\Visual_Pareidolia_ERGO103162\\participant_images\\participant_Saivydas2_20250404_150355\\stimuli_csv\\Saivydas2_training_T7_stim7.csv', 'C:\\Users\\sv5g24\\Desktop\\Visual_Pareidolia_ERGO103162\\participant_images\\participant_Saivydas2_20250404_150355\\stimuli_csv\\Saivydas2_training_T7_stim8.csv', 'C:\\Users\\sv5g24\\Desktop\\Visual_Pareidolia_ERGO103162\\participant_images\\participant_Saivydas2_20250404_150355\\stimuli_csv\\Saivydas2_training_T7_stim9.csv', 'C:\\Users\\sv5g24\\Desktop\\Visual_Pareidolia_ERGO103162\\participant_images\\participant_Saivydas2_20250404_150355\\stimuli_csv\\Saivydas2_training_T7_stim10.csv', 'C:\\Users\\sv5g24\\Desktop\\Visual_Pareidolia_ERGO103162\\participant_images\\participant_Saivydas2_20250404_150355\\stimuli_csv\\Saivydas2_training_T7_stim11.csv']",001,,,,,,,,,Saivydas2,001,True,
,,training,8,11,11,True,0.6959987999998702,C:\Users\sv5g24\Desktop\Visual_Pareidolia_ERGO103162\participant_images\participant_Saivydas2_20250404_150355\stimuli_grids\Saivydas2_Gtraining_T8_grid.png,"['C:\\Users\\sv5g24\\Desktop\\Visual_Pareidolia_ERGO103162\\participant_images\\participant_Saivydas2_20250404_150355\\stimuli_csv\\Saivydas2_training_T8_stim0.csv', 'C:\\Users\\sv5g24\\Desktop\\Visual_Pareidolia_ERGO103162\\participant_images\\participant_Saivydas2_20250404_150355\\stimuli_csv\\Saivydas2_training_T8_stim1.csv', 'C:\\Users\\sv5g24\\Desktop\\Visual_Pareidolia_ERGO103162\\participant_images\\participant_Saivydas2_20250404_150355\\stimuli_csv\\Saivydas2_training_T8_stim2.csv', 'C:\\Users\\sv5g24\\Desktop\\Visual_Pareidolia_ERGO103162\\participant_images\\participant_Saivydas2_20250404_150355\\stimuli_csv\\Saivydas2_training_T8_stim3.csv', 'C:\\Users\\sv5g24\\Desktop\\Visual_Pareidolia_ERGO103162\\participant_images\\participant_Saivydas2_20250404_150355\\stimuli_csv\\Saivydas2_training_T8_stim4.csv', 'C:\\Users\\sv5g24\\Desktop\\Visual_Pareidolia_ERGO103162\\participant_images\\participant_Saivydas2_20250404_150355\\stimuli_csv\\Saivydas2_training_T8_stim5.csv', 'C:\\Users\\sv5g24\\Desktop\\Visual_Pareidolia_ERGO103162\\participant_images\\participant_Saivydas2_20250404_150355\\stimuli_csv\\Saivydas2_training_T8_stim6.csv', 'C:\\Users\\sv5g24\\Desktop\\Visual_Pareidolia_ERGO103162\\participant_images\\participant_Saivydas2_20250404_150355\\stimuli_csv\\Saivydas2_training_T8_stim7.csv', 'C:\\Users\\sv5g24\\Desktop\\Visual_Pareidolia_ERGO103162\\participant_images\\participant_Saivydas2_20250404_150355\\stimuli_csv\\Saivydas2_training_T8_stim8.csv', 'C:\\Users\\sv5g24\\Desktop\\Visual_Pareidolia_ERGO103162\\participant_images\\participant_Saivydas2_20250404_150355\\stimuli_csv\\Saivydas2_training_T8_stim9.csv', 'C:\\Users\\sv5g24\\Desktop\\Visual_Pareidolia_ERGO103162\\participant_images\\participant_Saivydas2_20250404_150355\\stimuli_csv\\Saivydas2_training_T8_stim10.csv', 'C:\\Users\\sv5g24\\Desktop\\Visual_Pareidolia_ERGO103162\\participant_images\\participant_Saivydas2_20250404_150355\\stimuli_csv\\Saivydas2_training_T8_stim11.csv']",001,,,,,,,,,Saivydas2,001,True,
,,training,9,7,7,True,0.7468160000007629,C:\Users\sv5g24\Desktop\Visual_Pareidolia_ERGO103162\participant_images\participant_Saivydas2_20250404_150355\stimuli_grids\Saivydas2_Gtraining_T9_grid.png,"['C:\\Users\\sv5g24\\Desktop\\Visual_Pareidolia_ERGO103162\\participant_images\\participant_Saivydas2_20250404_150355\\stimuli_csv\\Saivydas2_training_T9_stim0.csv', 'C:\\Users\\sv5g24\\Desktop\\Visual_Pareidolia_ERGO103162\\participant_images\\participant_Saivydas2_20250404_150355\\stimuli_csv\\Saivydas2_training_T9_stim1.csv', 'C:\\Users\\sv5g24\\Desktop\\Visual_Pareidolia_ERGO103162\\participant_images\\participant_Saivydas2_20250404_150355\\stimuli_csv\\Saivydas2_training_T9_stim2.csv', 'C:\\Users\\sv5g24\\Desktop\\Visual_Pareidolia_ERGO103162\\participant_images\\participant_Saivydas2_20250404_150355\\stimuli_csv\\Saivydas2_training_T9_stim3.csv', 'C:\\Users\\sv5g24\\Desktop\\Visual_Pareidolia_ERGO103162\\participant_images\\participant_Saivydas2_20250404_150355\\stimuli_csv\\Saivydas2_training_T9_stim4.csv', 'C:\\Users\\sv5g24\\Desktop\\Visual_Pareidolia_ERGO103162\\participant_images\\participant_Saivydas2_20250404_150355\\stimuli_csv\\Saivydas2_training_T9_stim5.csv', 'C:\\Users\\sv5g24\\Desktop\\Visual_Pareidolia_ERGO103162\\participant_images\\participant_Saivydas2_20250404_150355\\stimuli_csv\\Saivydas2_training_T9_stim6.csv', 'C:\\Users\\sv5g24\\Desktop\\Visual_Pareidolia_ERGO103162\\participant_images\\participant_Saivydas2_20250404_150355\\stimuli_csv\\Saivydas2_training_T9_stim7.csv', 'C:\\Users\\sv5g24\\Desktop\\Visual_Pareidolia_ERGO103162\\participant_images\\participant_Saivydas2_20250404_150355\\stimuli_csv\\Saivydas2_training_T9_stim8.csv', 'C:\\Users\\sv5g24\\Desktop\\Visual_Pareidolia_ERGO103162\\participant_images\\participant_Saivydas2_20250404_150355\\stimuli_csv\\Saivydas2_training_T9_stim9.csv', 'C:\\Users\\sv5g24\\Desktop\\Visual_Pareidolia_ERGO103162\\participant_images\\participant_Saivydas2_20250404_150355\\stimuli_csv\\Saivydas2_training_T9_stim10.csv', 'C:\\Users\\sv5g24\\Desktop\\Visual_Pareidolia_ERGO103162\\participant_images\\participant_Saivydas2_20250404_150355\\stimuli_csv\\Saivydas2_training_T9_stim11.csv']",001,,,,,,,,,Saivydas2,001,True,
,,training,10,11,11,True,1.5411058999998204,C:\Users\sv5g24\Desktop\Visual_Pareidolia_ERGO103162\participant_images\participant_Saivydas2_20250404_150355\stimuli_grids\Saivydas2_Gtraining_T10_grid.png,"['C:\\Users\\sv5g24\\Desktop\\Visual_Pareidolia_ERGO103162\\participant_images\\participant_Saivydas2_20250404_150355\\stimuli_csv\\Saivydas2_training_T10_stim0.csv', 'C:\\Users\\sv5g24\\Desktop\\Visual_Pareidolia_ERGO103162\\participant_images\\participant_Saivydas2_20250404_150355\\stimuli_csv\\Saivydas2_training_T10_stim1.csv', 'C:\\Users\\sv5g24\\Desktop\\Visual_Pareidolia_ERGO103162\\participant_images\\participant_Saivydas2_20250404_150355\\stimuli_csv\\Saivydas2_training_T10_stim2.csv', 'C:\\Users\\sv5g24\\Desktop\\Visual_Pareidolia_ERGO103162\\participant_images\\participant_Saivydas2_20250404_150355\\stimuli_csv\\Saivydas2_training_T10_stim3.csv', 'C:\\Users\\sv5g24\\Desktop\\Visual_Pareidolia_ERGO103162\\participant_images\\participant_Saivydas2_20250404_150355\\stimuli_csv\\Saivydas2_training_T10_stim4.csv', 'C:\\Users\\sv5g24\\Desktop\\Visual_Pareidolia_ERGO103162\\participant_images\\participant_Saivydas2_20250404_150355\\stimuli_csv\\Saivydas2_training_T10_stim5.csv', 'C:\\Users\\sv5g24\\Desktop\\Visual_Pareidolia_ERGO103162\\participant_images\\participant_Saivydas2_20250404_150355\\stimuli_csv\\Saivydas2_training_T10_stim6.csv', 'C:\\Users\\sv5g24\\Desktop\\Visual_Pareidolia_ERGO103162\\participant_images\\participant_Saivydas2_20250404_150355\\stimuli_csv\\Saivydas2_training_T10_stim7.csv', 'C:\\Users\\sv5g24\\Desktop\\Visual_Pareidolia_ERGO103162\\participant_images\\participant_Saivydas2_20250404_150355\\stimuli_csv\\Saivydas2_training_T10_stim8.csv', 'C:\\Users\\sv5g24\\Desktop\\Visual_Pareidolia_ERGO103162\\participant_images\\participant_Saivydas2_20250404_150355\\stimuli_csv\\Saivydas2_training_T10_stim9.csv', 'C:\\Users\\sv5g24\\Desktop\\Visual_Pareidolia_ERGO103162\\participant_images\\participant_Saivydas2_20250404_150355\\stimuli_csv\\Saivydas2_training_T10_stim10.csv', 'C:\\Users\\sv5g24\\Desktop\\Visual_Pareidolia_ERGO103162\\participant_images\\participant_Saivydas2_20250404_150355\\stimuli_csv\\Saivydas2_training_T10_stim11.csv']",001,,,,,,,,,Saivydas2,001,True,
,,training,11,10,10,True,1.0292332000008173,C:\Users\sv5g24\Desktop\Visual_Pareidolia_ERGO103162\participant_images\participant_Saivydas2_20250404_150355\stimuli_grids\Saivydas2_Gtraining_T11_grid.png,"['C:\\Users\\sv5g24\\Desktop\\Visual_Pareidolia_ERGO103162\\participant_images\\participant_Saivydas2_20250404_150355\\stimuli_csv\\Saivydas2_training_T11_stim0.csv', 'C:\\Users\\sv5g24\\Desktop\\Visual_Pareidolia_ERGO103162\\participant_images\\participant_Saivydas2_20250404_150355\\stimuli_csv\\Saivydas2_training_T11_stim1.csv', 'C:\\Users\\sv5g24\\Desktop\\Visual_Pareidolia_ERGO103162\\participant_images\\participant_Saivydas2_20250404_150355\\stimuli_csv\\Saivydas2_training_T11_stim2.csv', 'C:\\Users\\sv5g24\\Desktop\\Visual_Pareidolia_ERGO103162\\participant_images\\participant_Saivydas2_20250404_150355\\stimuli_csv\\Saivydas2_training_T11_stim3.csv', 'C:\\Users\\sv5g24\\Desktop\\Visual_Pareidolia_ERGO103162\\participant_images\\participant_Saivydas2_20250404_150355\\stimuli_csv\\Saivydas2_training_T11_stim4.csv', 'C:\\Users\\sv5g24\\Desktop\\Visual_Pareidolia_ERGO103162\\participant_images\\participant_Saivydas2_20250404_150355\\stimuli_csv\\Saivydas2_training_T11_stim5.csv', 'C:\\Users\\sv5g24\\Desktop\\Visual_Pareidolia_ERGO103162\\participant_images\\participant_Saivydas2_20250404_150355\\stimuli_csv\\Saivydas2_training_T11_stim6.csv', 'C:\\Users\\sv5g24\\Desktop\\Visual_Pareidolia_ERGO103162\\participant_images\\participant_Saivydas2_20250404_150355\\stimuli_csv\\Saivydas2_training_T11_stim7.csv', 'C:\\Users\\sv5g24\\Desktop\\Visual_Pareidolia_ERGO103162\\participant_images\\participant_Saivydas2_20250404_150355\\stimuli_csv\\Saivydas2_training_T11_stim8.csv', 'C:\\Users\\sv5g24\\Desktop\\Visual_Pareidolia_ERGO103162\\participant_images\\participant_Saivydas2_20250404_150355\\stimuli_csv\\Saivydas2_training_T11_stim9.csv', 'C:\\Users\\sv5g24\\Desktop\\Visual_Pareidolia_ERGO103162\\participant_images\\participant_Saivydas2_20250404_150355\\stimuli_csv\\Saivydas2_training_T11_stim10.csv', 'C:\\Users\\sv5g24\\Desktop\\Visual_Pareidolia_ERGO103162\\participant_images\\participant_Saivydas2_20250404_150355\\stimuli_csv\\Saivydas2_training_T11_stim11.csv']",001,,,,,,,,,Saivydas2,001,True,
,,training,12,10,10,True,0.9430882999986352,C:\Users\sv5g24\Desktop\Visual_Pareidolia_ERGO103162\participant_images\participant_Saivydas2_20250404_150355\stimuli_grids\Saivydas2_Gtraining_T12_grid.png,"['C:\\Users\\sv5g24\\Desktop\\Visual_Pareidolia_ERGO103162\\participant_images\\participant_Saivydas2_20250404_150355\\stimuli_csv\\Saivydas2_training_T12_stim0.csv', 'C:\\Users\\sv5g24\\Desktop\\Visual_Pareidolia_ERGO103162\\participant_images\\participant_Saivydas2_20250404_150355\\stimuli_csv\\Saivydas2_training_T12_stim1.csv', 'C:\\Users\\sv5g24\\Desktop\\Visual_Pareidolia_ERGO103162\\participant_images\\participant_Saivydas2_20250404_150355\\stimuli_csv\\Saivydas2_training_T12_stim2.csv', 'C:\\Users\\sv5g24\\Desktop\\Visual_Pareidolia_ERGO103162\\participant_images\\participant_Saivydas2_20250404_150355\\stimuli_csv\\Saivydas2_training_T12_stim3.csv', 'C:\\Users\\sv5g24\\Desktop\\Visual_Pareidolia_ERGO103162\\participant_images\\participant_Saivydas2_20250404_150355\\stimuli_csv\\Saivydas2_training_T12_stim4.csv', 'C:\\Users\\sv5g24\\Desktop\\Visual_Pareidolia_ERGO103162\\participant_images\\participant_Saivydas2_20250404_150355\\stimuli_csv\\Saivydas2_training_T12_stim5.csv', 'C:\\Users\\sv5g24\\Desktop\\Visual_Pareidolia_ERGO103162\\participant_images\\participant_Saivydas2_20250404_150355\\stimuli_csv\\Saivydas2_training_T12_stim6.csv', 'C:\\Users\\sv5g24\\Desktop\\Visual_Pareidolia_ERGO103162\\participant_images\\participant_Saivydas2_20250404_150355\\stimuli_csv\\Saivydas2_training_T12_stim7.csv', 'C:\\Users\\sv5g24\\Desktop\\Visual_Pareidolia_ERGO103162\\participant_images\\participant_Saivydas2_20250404_150355\\stimuli_csv\\Saivydas2_training_T12_stim8.csv', 'C:\\Users\\sv5g24\\Desktop\\Visual_Pareidolia_ERGO103162\\participant_images\\participant_Saivydas2_20250404_150355\\stimuli_csv\\Saivydas2_training_T12_stim9.csv', 'C:\\Users\\sv5g24\\Desktop\\Visual_Pareidolia_ERGO103162\\participant_images\\participant_Saivydas2_20250404_150355\\stimuli_csv\\Saivydas2_training_T12_stim10.csv', 'C:\\Users\\sv5g24\\Desktop\\Visual_Pareidolia_ERGO103162\\participant_images\\participant_Saivydas2_20250404_150355\\stimuli_csv\\Saivydas2_training_T12_stim11.csv']",001,,,,,,,,,Saivydas2,001,True,
,,,,,7,,8.86257299999852,C:\Users\sv5g24\Desktop\Visual_Pareidolia_ERGO103162\participant_images\participant_Saivydas2_20250404_150355\stimuli_grids\Saivydas2_G0_T0_grid.png,,001,0,0,,,,,,,Saivydas2,001,True,
,,,,,5,,22.990833699997893,C:\Users\sv5g24\Desktop\Visual_Pareidolia_ERGO103162\participant_images\participant_Saivydas2_20250404_150355\stimuli_grids\Saivydas2_G0_T1_grid.png,,001,0,1,,,,,,,Saivydas2,001,True,
,,,,,10,,5.396466000001965,C:\Users\sv5g24\Desktop\Visual_Pareidolia_ERGO103162\participant_images\participant_Saivydas2_20250404_150355\stimuli_grids\Saivydas2_G0_T2_grid.png,,001,0,2,,,,,,,Saivydas2,001,True,
,,,,,2,,2.251683700000285,C:\Users\sv5g24\Desktop\Visual_Pareidolia_ERGO103162\participant_images\participant_Saivydas2_20250404_150355\stimuli_grids\Saivydas2_G0_T3_grid.png,,001,0,3,,,,,,,Saivydas2,001,True,
,,,,,1,,9.85206990000006,C:\Users\sv5g24\Desktop\Visual_Pareidolia_ERGO103162\participant_images\participant_Saivydas2_20250404_150355\stimuli_grids\Saivydas2_G0_T4_grid.png,,001,0,4,,,,,,,Saivydas2,001,True,
,,,,,9,,3.552709600000526,C:\Users\sv5g24\Desktop\Visual_Pareidolia_ERGO103162\participant_images\participant_Saivydas2_20250404_150355\stimuli_grids\Saivydas2_G0_T5_grid.png,,001,0,5,,,,,,,Saivydas2,001,True,
,,,,,10,,6.286762299998372,C:\Users\sv5g24\Desktop\Visual_Pareidolia_ERGO103162\participant_images\participant_Saivydas2_20250404_150355\stimuli_grids\Saivydas2_G0_T6_grid.png,,001,0,6,,,,,,,Saivydas2,001,True,
,,,,,4,,6.936431099999027,C:\Users\sv5g24\Desktop\Visual_Pareidolia_ERGO103162\participant_images\participant_Saivydas2_20250404_150355\stimuli_grids\Saivydas2_G0_T7_grid.png,,001,0,7,,,,,,,Saivydas2,001,True,
,,,,,10,,12.850069000000076,C:\Users\sv5g24\Desktop\Visual_Pareidolia_ERGO103162\participant_images\participant_Saivydas2_20250404_150355\stimuli_grids\Saivydas2_G0_T8_grid.png,,001,0,8,,,,,,,Saivydas2,001,True,
,,,,,5,,10.937217800001235,C:\Users\sv5g24\Desktop\Visual_Pareidolia_ERGO103162\participant_images\participant_Saivydas2_20250404_150355\stimuli_grids\Saivydas2_G0_T9_grid.png,,001,0,9,,,,,,,Saivydas2,001,True,
,,,,,1,,23.351938700001483,C:\Users\sv5g24\Desktop\Visual_Pareidolia_ERGO103162\participant_images\participant_Saivydas2_20250404_150355\stimuli_grids\Saivydas2_G0_T10_grid.png,,001,0,10,,,,,,,Saivydas2,001,True,
,,,,,2,,18.013736299999437,C:\Users\sv5g24\Desktop\Visual_Pareidolia_ERGO103162\participant_images\participant_Saivydas2_20250404_150355\stimuli_grids\Saivydas2_G0_T11_grid.png,,001,0,11,,,,,,,Saivydas2,001,True,
,,,,,4,,10.172746200001711,C:\Users\sv5g24\Desktop\Visual_Pareidolia_ERGO103162\participant_images\participant_Saivydas2_20250404_150355\stimuli_grids\Saivydas2_G1_T0_grid.png,,001,1,0,,,,,,,Saivydas2,001,True,
,,,,,1,,7.641870700001164,C:\Users\sv5g24\Desktop\Visual_Pareidolia_ERGO103162\participant_images\participant_Saivydas2_20250404_150355\stimuli_grids\Saivydas2_G1_T1_grid.png,,001,1,1,,,,,,,Saivydas2,001,True,
,,,,,9,,2.7541576999974495,C:\Users\sv5g24\Desktop\Visual_Pareidolia_ERGO103162\participant_images\participant_Saivydas2_20250404_150355\stimuli_grids\Saivydas2_G1_T2_grid.png,,001,1,2,,,,,,,Saivydas2,001,True,
,,,,,6,,9.632362100001046,C:\Users\sv5g24\Desktop\Visual_Pareidolia_ERGO103162\participant_images\participant_Saivydas2_20250404_150355\stimuli_grids\Saivydas2_G1_T3_grid.png,,001,1,3,,,,,,,Saivydas2,001,True,
,,,,,6,,8.020419299999048,C:\Users\sv5g24\Desktop\Visual_Pareidolia_ERGO103162\participant_images\participant_Saivydas2_20250404_150355\stimuli_grids\Saivydas2_G1_T4_grid.png,,001,1,4,,,,,,,Saivydas2,001,True,
,,,,,0,,7.169902300000103,C:\Users\sv5g24\Desktop\Visual_Pareidolia_ERGO103162\participant_images\participant_Saivydas2_20250404_150355\stimuli_grids\Saivydas2_G1_T5_grid.png,,001,1,5,,,,,,,Saivydas2,001,True,
,,,,,2,,4.624666300001991,C:\Users\sv5g24\Desktop\Visual_Pareidolia_ERGO103162\participant_images\participant_Saivydas2_20250404_150355\stimuli_grids\Saivydas2_G1_T6_grid.png,,001,1,6,,,,,,,Saivydas2,001,True,
,,,,,10,,18.447173100001237,C:\Users\sv5g24\Desktop\Visual_Pareidolia_ERGO103162\participant_images\participant_Saivydas2_20250404_150355\stimuli_grids\Saivydas2_G1_T7_grid.png,,001,1,7,,,,,,,Saivydas2,001,True,
,,,,,4,,5.897982599999523,C:\Users\sv5g24\Desktop\Visual_Pareidolia_ERGO103162\participant_images\participant_Saivydas2_20250404_150355\stimuli_grids\Saivydas2_G1_T8_grid.png,,001,1,8,,,,,,,Saivydas2,001,True,
,,,,,0,,2.7992617999989307,C:\Users\sv5g24\Desktop\Visual_Pareidolia_ERGO103162\participant_images\participant_Saivydas2_20250404_150355\stimuli_grids\Saivydas2_G1_T9_grid.png,,001,1,9,,,,,,,Saivydas2,001,True,
,,,,,0,,6.236451600001601,C:\Users\sv5g24\Desktop\Visual_Pareidolia_ERGO103162\participant_images\participant_Saivydas2_20250404_150355\stimuli_grids\Saivydas2_G1_T10_grid.png,,001,1,10,,,,,,,Saivydas2,001,True,
,,,,,9,,6.557659000001877,C:\Users\sv5g24\Desktop\Visual_Pareidolia_ERGO103162\participant_images\participant_Saivydas2_20250404_150355\stimuli_grids\Saivydas2_G1_T11_grid.png,,001,1,11,,,,,,,Saivydas2,001,True,
,,,,,5,,8.919293899998593,C:\Users\sv5g24\Desktop\Visual_Pareidolia_ERGO103162\participant_images\participant_Saivydas2_20250404_150355\stimuli_grids\Saivydas2_G2_T0_grid.png,,001,2,0,,,,,,,Saivydas2,001,True,
,,,,,6,,3.2352379000003566,C:\Users\sv5g24\Desktop\Visual_Pareidolia_ERGO103162\participant_images\participant_Saivydas2_20250404_150355\stimuli_grids\Saivydas2_G2_T1_grid.png,,001,2,1,,,,,,,Saivydas2,001,True,
,,,,,1,,6.169326400002319,C:\Users\sv5g24\Desktop\Visual_Pareidolia_ERGO103162\participant_images\participant_Saivydas2_20250404_150355\stimuli_grids\Saivydas2_G2_T2_grid.png,,001,2,2,,,,,,,Saivydas2,001,True,
,,,,,4,,4.634949199997209,C:\Users\sv5g24\Desktop\Visual_Pareidolia_ERGO103162\participant_images\participant_Saivydas2_20250404_150355\stimuli_grids\Saivydas2_G2_T3_grid.png,,001,2,3,,,,,,,Saivydas2,001,True,
,,,,,2,,8.430710699998599,C:\Users\sv5g24\Desktop\Visual_Pareidolia_ERGO103162\participant_images\participant_Saivydas2_20250404_150355\stimuli_grids\Saivydas2_G2_T4_grid.png,,001,2,4,,,,,,,Saivydas2,001,True,
,,,,,2,,8.835648800002673,C:\Users\sv5g24\Desktop\Visual_Pareidolia_ERGO103162\participant_images\participant_Saivydas2_20250404_150355\stimuli_grids\Saivydas2_G2_T5_grid.png,,001,2,5,,,,,,,Saivydas2,001,True,
,,,,,10,,2.8191527999988466,C:\Users\sv5g24\Desktop\Visual_Pareidolia_ERGO103162\participant_images\participant_Saivydas2_20250404_150355\stimuli_grids\Saivydas2_G2_T6_grid.png,,001,2,6,,,,,,,Saivydas2,001,True,
,,,,,10,,3.6688596999993024,C:\Users\sv5g24\Desktop\Visual_Pareidolia_ERGO103162\participant_images\participant_Saivydas2_20250404_150355\stimuli_grids\Saivydas2_G2_T7_grid.png,,001,2,7,,,,,,,Saivydas2,001,True,
,,,,,8,,8.104203500002768,C:\Users\sv5g24\Desktop\Visual_Pareidolia_ERGO103162\participant_images\participant_Saivydas2_20250404_150355\stimuli_grids\Saivydas2_G2_T8_grid.png,,001,2,8,,,,,,,Saivydas2,001,True,
,,,,,2,,8.46336909999809,C:\Users\sv5g24\Desktop\Visual_Pareidolia_ERGO103162\participant_images\participant_Saivydas2_20250404_150355\stimuli_grids\Saivydas2_G2_T9_grid.png,,001,2,9,,,,,,,Saivydas2,001,True,
,,,,,5,,5.8576326000002155,C:\Users\sv5g24\Desktop\Visual_Pareidolia_ERGO103162\participant_images\participant_Saivydas2_20250404_150355\stimuli_grids\Saivydas2_G2_T10_grid.png,,001,2,10,,,,,,,Saivydas2,001,True,
,,,,,4,,14.420499299998482,C:\Users\sv5g24\Desktop\Visual_Pareidolia_ERGO103162\participant_images\participant_Saivydas2_20250404_150355\stimuli_grids\Saivydas2_G2_T11_grid.png,,001,2,11,,,,,,,Saivydas2,001,True,
,,,,,10,,6.092772399999376,C:\Users\sv5g24\Desktop\Visual_Pareidolia_ERGO103162\participant_images\participant_Saivydas2_20250404_150355\stimuli_grids\Saivydas2_G3_T0_grid.png,,001,3,0,,,,,,,Saivydas2,001,True,
,,,,,7,,7.470713800001249,C:\Users\sv5g24\Desktop\Visual_Pareidolia_ERGO103162\participant_images\participant_Saivydas2_20250404_150355\stimuli_grids\Saivydas2_G3_T1_grid.png,,001,3,1,,,,,,,Saivydas2,001,True,
,,,,,8,,5.845854999999574,C:\Users\sv5g24\Desktop\Visual_Pareidolia_ERGO103162\participant_images\participant_Saivydas2_20250404_150355\stimuli_grids\Saivydas2_G3_T2_grid.png,,001,3,2,,,,,,,Saivydas2,001,True,
,,,,,9,,7.336521900000662,C:\Users\sv5g24\Desktop\Visual_Pareidolia_ERGO103162\participant_images\participant_Saivydas2_20250404_150355\stimuli_grids\Saivydas2_G3_T3_grid.png,,001,3,3,,,,,,,Saivydas2,001,True,
,,,,,10,,20.620183499999257,C:\Users\sv5g24\Desktop\Visual_Pareidolia_ERGO103162\participant_images\participant_Saivydas2_20250404_150355\stimuli_grids\Saivydas2_G3_T4_grid.png,,001,3,4,,,,,,,Saivydas2,001,True,
,,,,,5,,8.523780799998349,C:\Users\sv5g24\Desktop\Visual_Pareidolia_ERGO103162\participant_images\participant_Saivydas2_20250404_150355\stimuli_grids\Saivydas2_G3_T5_grid.png,,001,3,5,,,,,,,Saivydas2,001,True,
,,,,,8,,2.758276199998363,C:\Users\sv5g24\Desktop\Visual_Pareidolia_ERGO103162\participant_images\participant_Saivydas2_20250404_150355\stimuli_grids\Saivydas2_G3_T6_grid.png,,001,3,6,,,,,,,Saivydas2,001,True,
,,,,,0,,8.366288400000485,C:\Users\sv5g24\Desktop\Visual_Pareidolia_ERGO103162\participant_images\participant_Saivydas2_20250404_150355\stimuli_grids\Saivydas2_G3_T7_grid.png,,001,3,7,,,,,,,Saivydas2,001,True,
,,,,,0,,3.7036311000010755,C:\Users\sv5g24\Desktop\Visual_Pareidolia_ERGO103162\participant_images\participant_Saivydas2_20250404_150355\stimuli_grids\Saivydas2_G3_T8_grid.png,,001,3,8,,,,,,,Saivydas2,001,True,
,,,,,1,,6.068903700001101,C:\Users\sv5g24\Desktop\Visual_Pareidolia_ERGO103162\participant_images\participant_Saivydas2_20250404_150355\stimuli_grids\Saivydas2_G3_T9_grid.png,,001,3,9,,,,,,,Saivydas2,001,True,
,,,,,8,,25.083561700001155,C:\Users\sv5g24\Desktop\Visual_Pareidolia_ERGO103162\participant_images\participant_Saivydas2_20250404_150355\stimuli_grids\Saivydas2_G3_T10_grid.png,,001,3,10,,,,,,,Saivydas2,001,True,
,,,,,4,,9.06465720000051,C:\Users\sv5g24\Desktop\Visual_Pareidolia_ERGO103162\participant_images\participant_Saivydas2_20250404_150355\stimuli_grids\Saivydas2_G3_T11_grid.png,,001,3,11,,,,,,,Saivydas2,001,True,
,,,,,1,,3.9966472999985854,C:\Users\sv5g24\Desktop\Visual_Pareidolia_ERGO103162\participant_images\participant_Saivydas2_20250404_150355\stimuli_grids\Saivydas2_G4_T0_grid.png,,001,4,0,,,,,,,Saivydas2,001,True,
,,,,,9,,7.6700999999993655,C:\Users\sv5g24\Desktop\Visual_Pareidolia_ERGO103162\participant_images\participant_Saivydas2_20250404_150355\stimuli_grids\Saivydas2_G4_T1_grid.png,,001,4,1,,,,,,,Saivydas2,001,True,
,,,,,6,,3.1812953999979072,C:\Users\sv5g24\Desktop\Visual_Pareidolia_ERGO103162\participant_images\participant_Saivydas2_20250404_150355\stimuli_grids\Saivydas2_G4_T2_grid.png,,001,4,2,,,,,,,Saivydas2,001,True,
,,,,,2,,6.7915800999981,C:\Users\sv5g24\Desktop\Visual_Pareidolia_ERGO103162\participant_images\participant_Saivydas2_20250404_150355\stimuli_grids\Saivydas2_G4_T3_grid.png,,001,4,3,,,,,,,Saivydas2,001,True,
,,,,,4,,1.56849019999936,C:\Users\sv5g24\Desktop\Visual_Pareidolia_ERGO103162\participant_images\participant_Saivydas2_20250404_150355\stimuli_grids\Saivydas2_G4_T4_grid.png,,001,4,4,,,,,,,Saivydas2,001,True,
,,,,,0,,3.8310166999981448,C:\Users\sv5g24\Desktop\Visual_Pareidolia_ERGO103162\participant_images\participant_Saivydas2_20250404_150355\stimuli_grids\Saivydas2_G4_T5_grid.png,,001,4,5,,,,,,,Saivydas2,001,True,
,,,,,5,,11.766413999997894,C:\Users\sv5g24\Desktop\Visual_Pareidolia_ERGO103162\participant_images\participant_Saivydas2_20250404_150355\stimuli_grids\Saivydas2_G4_T6_grid.png,,001,4,6,,,,,,,Saivydas2,001,True,
,,,,,8,,4.219450300002791,C:\Users\sv5g24\Desktop\Visual_Pareidolia_ERGO103162\participant_images\participant_Saivydas2_20250404_150355\stimuli_grids\Saivydas2_G4_T7_grid.png,,001,4,7,,,,,,,Saivydas2,001,True,
,,,,,5,,4.653045000002749,C:\Users\sv5g24\Desktop\Visual_Pareidolia_ERGO103162\participant_images\participant_Saivydas2_20250404_150355\stimuli_grids\Saivydas2_G4_T8_grid.png,,001,4,8,,,,,,,Saivydas2,001,True,
,,,,,6,,9.237532300001476,C:\Users\sv5g24\Desktop\Visual_Pareidolia_ERGO103162\participant_images\participant_Saivydas2_20250404_150355\stimuli_grids\Saivydas2_G4_T9_grid.png,,001,4,9,,,,,,,Saivydas2,001,True,
,,,,,4,,5.566591499999049,C:\Users\sv5g24\Desktop\Visual_Pareidolia_ERGO103162\participant_images\participant_Saivydas2_20250404_150355\stimuli_grids\Saivydas2_G4_T10_grid.png,,001,4,10,,,,,,,Saivydas2,001,True,
,,,,,9,,6.748364199997013,C:\Users\sv5g24\Desktop\Visual_Pareidolia_ERGO103162\participant_images\participant_Saivydas2_20250404_150355\stimuli_grids\Saivydas2_G4_T11_grid.png,,001,4,11,,,,,,,Saivydas2,001,True,
,,,,,10,,3.7244630999994115,C:\Users\sv5g24\Desktop\Visual_Pareidolia_ERGO103162\participant_images\participant_Saivydas2_20250404_150355\stimuli_grids\Saivydas2_G5_T0_grid.png,,001,5,0,,,,,,,Saivydas2,001,True,
,,,,,8,,1.9553259999993315,C:\Users\sv5g24\Desktop\Visual_Pareidolia_ERGO103162\participant_images\participant_Saivydas2_20250404_150355\stimuli_grids\Saivydas2_G5_T1_grid.png,,001,5,1,,,,,,,Saivydas2,001,True,
,,,,,6,,7.403167099997518,C:\Users\sv5g24\Desktop\Visual_Pareidolia_ERGO103162\participant_images\participant_Saivydas2_20250404_150355\stimuli_grids\Saivydas2_G5_T2_grid.png,,001,5,2,,,,,,,Saivydas2,001,True,
,,,,,1,,2.857493199997407,C:\Users\sv5g24\Desktop\Visual_Pareidolia_ERGO103162\participant_images\participant_Saivydas2_20250404_150355\stimuli_grids\Saivydas2_G5_T3_grid.png,,001,5,3,,,,,,,Saivydas2,001,True,
,,,,,4,,2.5072056999997585,C:\Users\sv5g24\Desktop\Visual_Pareidolia_ERGO103162\participant_images\participant_Saivydas2_20250404_150355\stimuli_grids\Saivydas2_G5_T4_grid.png,,001,5,4,,,,,,,Saivydas2,001,True,
,,,,,7,,2.940177100001165,C:\Users\sv5g24\Desktop\Visual_Pareidolia_ERGO103162\participant_images\participant_Saivydas2_20250404_150355\stimuli_grids\Saivydas2_G5_T5_grid.png,,001,5,5,,,,,,,Saivydas2,001,True,
,,,,,2,,4.320496000000276,C:\Users\sv5g24\Desktop\Visual_Pareidolia_ERGO103162\participant_images\participant_Saivydas2_20250404_150355\stimuli_grids\Saivydas2_G5_T6_grid.png,,001,5,6,,,,,,,Saivydas2,001,True,
,,,,,9,,4.169676900000923,C:\Users\sv5g24\Desktop\Visual_Pareidolia_ERGO103162\participant_images\participant_Saivydas2_20250404_150355\stimuli_grids\Saivydas2_G5_T7_grid.png,,001,5,7,,,,,,,Saivydas2,001,True,
,,,,,3,,6.8863970000020345,C:\Users\sv5g24\Desktop\Visual_Pareidolia_ERGO103162\participant_images\participant_Saivydas2_20250404_150355\stimuli_grids\Saivydas2_G5_T8_grid.png,,001,5,8,,,,,,,Saivydas2,001,True,
,,,,,4,,14.42395949999991,C:\Users\sv5g24\Desktop\Visual_Pareidolia_ERGO103162\participant_images\participant_Saivydas2_20250404_150355\stimuli_grids\Saivydas2_G5_T9_grid.png,,001,5,9,,,,,,,Saivydas2,001,True,
,,,,,10,,4.6709674000012456,C:\Users\sv5g24\Desktop\Visual_Pareidolia_ERGO103162\participant_images\participant_Saivydas2_20250404_150355\stimuli_grids\Saivydas2_G5_T10_grid.png,,001,5,10,,,,,,,Saivydas2,001,True,
,,,,,1,,8.384113899999647,C:\Users\sv5g24\Desktop\Visual_Pareidolia_ERGO103162\participant_images\participant_Saivydas2_20250404_150355\stimuli_grids\Saivydas2_G5_T11_grid.png,,001,5,11,,,,,,,Saivydas2,001,True,
,,,,,4,,1.4889012999992701,C:\Users\sv5g24\Desktop\Visual_Pareidolia_ERGO103162\participant_images\participant_Saivydas2_20250404_150355\stimuli_grids\Saivydas2_G6_T0_grid.png,,001,6,0,,,,,,,Saivydas2,001,True,
,,,,,5,,1.1678178000001935,C:\Users\sv5g24\Desktop\Visual_Pareidolia_ERGO103162\participant_images\participant_Saivydas2_20250404_150355\stimuli_grids\Saivydas2_G6_T1_grid.png,,001,6,1,,,,,,,Saivydas2,001,True,
,,,,,11,,1.7353795999988506,C:\Users\sv5g24\Desktop\Visual_Pareidolia_ERGO103162\participant_images\participant_Saivydas2_20250404_150355\stimuli_grids\Saivydas2_G6_T2_grid.png,,001,6,2,,,,,,,Saivydas2,001,True,
,,,,,2,,2.8947504999996454,C:\Users\sv5g24\Desktop\Visual_Pareidolia_ERGO103162\participant_images\participant_Saivydas2_20250404_150355\stimuli_grids\Saivydas2_G6_T3_grid.png,,001,6,3,,,,,,,Saivydas2,001,True,
,,,,,5,,1.5745950999989873,C:\Users\sv5g24\Desktop\Visual_Pareidolia_ERGO103162\participant_images\participant_Saivydas2_20250404_150355\stimuli_grids\Saivydas2_G6_T4_grid.png,,001,6,4,,,,,,,Saivydas2,001,True,
,,,,,1,,2.2650410999995074,C:\Users\sv5g24\Desktop\Visual_Pareidolia_ERGO103162\participant_images\participant_Saivydas2_20250404_150355\stimuli_grids\Saivydas2_G6_T5_grid.png,,001,6,5,,,,,,,Saivydas2,001,True,
,,,,,1,,2.4992173999999068,C:\Users\sv5g24\Desktop\Visual_Pareidolia_ERGO103162\participant_images\participant_Saivydas2_20250404_150355\stimuli_grids\Saivydas2_G6_T6_grid.png,,001,6,6,,,,,,,Saivydas2,001,True,
,,,,,2,,8.758047399998759,C:\Users\sv5g24\Desktop\Visual_Pareidolia_ERGO103162\participant_images\participant_Saivydas2_20250404_150355\stimuli_grids\Saivydas2_G6_T7_grid.png,,001,6,7,,,,,,,Saivydas2,001,True,
,,,,,0,,5.0516730999988795,C:\Users\sv5g24\Desktop\Visual_Pareidolia_ERGO103162\participant_images\participant_Saivydas2_20250404_150355\stimuli_grids\Saivydas2_G6_T8_grid.png,,001,6,8,,,,,,,Saivydas2,001,True,
,,,,,1,,3.0684696000025724,C:\Users\sv5g24\Desktop\Visual_Pareidolia_ERGO103162\participant_images\participant_Saivydas2_20250404_150355\stimuli_grids\Saivydas2_G6_T9_grid.png,,001,6,9,,,,,,,Saivydas2,001,True,
,,,,,8,,3.206903299997066,C:\Users\sv5g24\Desktop\Visual_Pareidolia_ERGO103162\participant_images\participant_Saivydas2_20250404_150355\stimuli_grids\Saivydas2_G6_T10_grid.png,,001,6,10,,,,,,,Saivydas2,001,True,
,,,,,8,,0.022293699999863748,C:\Users\sv5g24\Desktop\Visual_Pareidolia_ERGO103162\participant_images\participant_Saivydas2_20250404_150355\stimuli_grids\Saivydas2_G6_T11_grid.png,,001,6,11,,,,,,,Saivydas2,001,True,
,,,,,5,,4.73904919999768,C:\Users\sv5g24\Desktop\Visual_Pareidolia_ERGO103162\participant_images\participant_Saivydas2_20250404_150355\stimuli_grids\Saivydas2_G7_T0_grid.png,,001,7,0,,,,,,,Saivydas2,001,True,
,,,,,6,,1.4895051999992575,C:\Users\sv5g24\Desktop\Visual_Pareidolia_ERGO103162\participant_images\participant_Saivydas2_20250404_150355\stimuli_grids\Saivydas2_G7_T1_grid.png,,001,7,1,,,,,,,Saivydas2,001,True,
,,,,,8,,1.7377979999982927,C:\Users\sv5g24\Desktop\Visual_Pareidolia_ERGO103162\participant_images\participant_Saivydas2_20250404_150355\stimuli_grids\Saivydas2_G7_T2_grid.png,,001,7,2,,,,,,,Saivydas2,001,True,
,,,,,2,,3.3997681999971974,C:\Users\sv5g24\Desktop\Visual_Pareidolia_ERGO103162\participant_images\participant_Saivydas2_20250404_150355\stimuli_grids\Saivydas2_G7_T3_grid.png,,001,7,3,,,,,,,Saivydas2,001,True,
,,,,,4,,2.6047916999996232,C:\Users\sv5g24\Desktop\Visual_Pareidolia_ERGO103162\participant_images\participant_Saivydas2_20250404_150355\stimuli_grids\Saivydas2_G7_T4_grid.png,,001,7,4,,,,,,,Saivydas2,001,True,
,,,,,8,,3.474282699997275,C:\Users\sv5g24\Desktop\Visual_Pareidolia_ERGO103162\participant_images\participant_Saivydas2_20250404_150355\stimuli_grids\Saivydas2_G7_T5_grid.png,,001,7,5,,,,,,,Saivydas2,001,True,
,,,,,8,,3.9866046999995888,C:\Users\sv5g24\Desktop\Visual_Pareidolia_ERGO103162\participant_images\participant_Saivydas2_20250404_150355\stimuli_grids\Saivydas2_G7_T6_grid.png,,001,7,6,,,,,,,Saivydas2,001,True,
,,,,,6,,6.212239200001932,C:\Users\sv5g24\Desktop\Visual_Pareidolia_ERGO103162\participant_images\participant_Saivydas2_20250404_150355\stimuli_grids\Saivydas2_G7_T7_grid.png,,001,7,7,,,,,,,Saivydas2,001,True,
,,,,,10,,7.212718599999789,C:\Users\sv5g24\Desktop\Visual_Pareidolia_ERGO103162\participant_images\participant_Saivydas2_20250404_150355\stimuli_grids\Saivydas2_G7_T8_grid.png,,001,7,8,,,,,,,Saivydas2,001,True,
,,,,,6,,4.19917279999936,C:\Users\sv5g24\Desktop\Visual_Pareidolia_ERGO103162\participant_images\participant_Saivydas2_20250404_150355\stimuli_grids\Saivydas2_G7_T9_grid.png,,001,7,9,,,,,,,Saivydas2,001,True,
,,,,,9,,2.9573425999988103,C:\Users\sv5g24\Desktop\Visual_Pareidolia_ERGO103162\participant_images\participant_Saivydas2_20250404_150355\stimuli_grids\Saivydas2_G7_T10_grid.png,,001,7,10,,,,,,,Saivydas2,001,True,
,,,,,1,,7.730870200000936,C:\Users\sv5g24\Desktop\Visual_Pareidolia_ERGO103162\participant_images\participant_Saivydas2_20250404_150355\stimuli_grids\Saivydas2_G7_T11_grid.png,,001,7,11,,,,,,,Saivydas2,001,True,
,,,,,6,,3.5869619000004604,C:\Users\sv5g24\Desktop\Visual_Pareidolia_ERGO103162\participant_images\participant_Saivydas2_20250404_150355\stimuli_grids\Saivydas2_G8_T0_grid.png,,001,8,0,,,,,,,Saivydas2,001,True,
,,,,,2,,2.651885299997957,C:\Users\sv5g24\Desktop\Visual_Pareidolia_ERGO103162\participant_images\participant_Saivydas2_20250404_150355\stimuli_grids\Saivydas2_G8_T1_grid.png,,001,8,1,,,,,,,Saivydas2,001,True,
,,,,,10,,2.956965199999104,C:\Users\sv5g24\Desktop\Visual_Pareidolia_ERGO103162\participant_images\participant_Saivydas2_20250404_150355\stimuli_grids\Saivydas2_G8_T2_grid.png,,001,8,2,,,,,,,Saivydas2,001,True,
,,,,,2,,2.0064812999989954,C:\Users\sv5g24\Desktop\Visual_Pareidolia_ERGO103162\participant_images\participant_Saivydas2_20250404_150355\stimuli_grids\Saivydas2_G8_T3_grid.png,,001,8,3,,,,,,,Saivydas2,001,True,
,,,,,6,,3.8573771999981545,C:\Users\sv5g24\Desktop\Visual_Pareidolia_ERGO103162\participant_images\participant_Saivydas2_20250404_150355\stimuli_grids\Saivydas2_G8_T4_grid.png,,001,8,4,,,,,,,Saivydas2,001,True,
,,,,,6,,9.200525799999014,C:\Users\sv5g24\Desktop\Visual_Pareidolia_ERGO103162\participant_images\participant_Saivydas2_20250404_150355\stimuli_grids\Saivydas2_G8_T5_grid.png,,001,8,5,,,,,,,Saivydas2,001,True,
,,,,,5,,6.800583600001119,C:\Users\sv5g24\Desktop\Visual_Pareidolia_ERGO103162\participant_images\participant_Saivydas2_20250404_150355\stimuli_grids\Saivydas2_G8_T6_grid.png,,001,8,6,,,,,,,Saivydas2,001,True,
,,,,,3,,2.4487712000009196,C:\Users\sv5g24\Desktop\Visual_Pareidolia_ERGO103162\participant_images\participant_Saivydas2_20250404_150355\stimuli_grids\Saivydas2_G8_T7_grid.png,,001,8,7,,,,,,,Saivydas2,001,True,
,,,,,4,,1.5493857000001299,C:\Users\sv5g24\Desktop\Visual_Pareidolia_ERGO103162\participant_images\participant_Saivydas2_20250404_150355\stimuli_grids\Saivydas2_G8_T8_grid.png,,001,8,8,,,,,,,Saivydas2,001,True,
,,,,,5,,9.457984599997872,C:\Users\sv5g24\Desktop\Visual_Pareidolia_ERGO103162\participant_images\participant_Saivydas2_20250404_150355\stimuli_grids\Saivydas2_G8_T9_grid.png,,001,8,9,,,,,,,Saivydas2,001,True,
,,,,,4,,4.266903800002183,C:\Users\sv5g24\Desktop\Visual_Pareidolia_ERGO103162\participant_images\participant_Saivydas2_20250404_150355\stimuli_grids\Saivydas2_G8_T10_grid.png,,001,8,10,,,,,,,Saivydas2,001,True,
,,,,,2,,4.0071753000011086,C:\Users\sv5g24\Desktop\Visual_Pareidolia_ERGO103162\participant_images\participant_Saivydas2_20250404_150355\stimuli_grids\Saivydas2_G8_T11_grid.png,,001,8,11,,,,,,,Saivydas2,001,True,
,,,,,5,,1.9396073999996588,C:\Users\sv5g24\Desktop\Visual_Pareidolia_ERGO103162\participant_images\participant_Saivydas2_20250404_150355\stimuli_grids\Saivydas2_G9_T0_grid.png,,001,9,0,,,,,,,Saivydas2,001,True,
,,,,,7,,4.281415699999343,C:\Users\sv5g24\Desktop\Visual_Pareidolia_ERGO103162\participant_images\participant_Saivydas2_20250404_150355\stimuli_grids\Saivydas2_G9_T1_grid.png,,001,9,1,,,,,,,Saivydas2,001,True,
,,,,,1,,1.8839661999991222,C:\Users\sv5g24\Desktop\Visual_Pareidolia_ERGO103162\participant_images\participant_Saivydas2_20250404_150355\stimuli_grids\Saivydas2_G9_T2_grid.png,,001,9,2,,,,,,,Saivydas2,001,True,
,,,,,4,,2.1513908999986597,C:\Users\sv5g24\Desktop\Visual_Pareidolia_ERGO103162\participant_images\participant_Saivydas2_20250404_150355\stimuli_grids\Saivydas2_G9_T3_grid.png,,001,9,3,,,,,,,Saivydas2,001,True,
,,,,,4,,1.9535715999991226,C:\Users\sv5g24\Desktop\Visual_Pareidolia_ERGO103162\participant_images\participant_Saivydas2_20250404_150355\stimuli_grids\Saivydas2_G9_T4_grid.png,,001,9,4,,,,,,,Saivydas2,001,True,
,,,,,1,,3.670178299998952,C:\Users\sv5g24\Desktop\Visual_Pareidolia_ERGO103162\participant_images\participant_Saivydas2_20250404_150355\stimuli_grids\Saivydas2_G9_T5_grid.png,,001,9,5,,,,,,,Saivydas2,001,True,
,,,,,8,,7.083997400000953,C:\Users\sv5g24\Desktop\Visual_Pareidolia_ERGO103162\participant_images\participant_Saivydas2_20250404_150355\stimuli_grids\Saivydas2_G9_T6_grid.png,,001,9,6,,,,,,,Saivydas2,001,True,
,,,,,4,,2.888390600001003,C:\Users\sv5g24\Desktop\Visual_Pareidolia_ERGO103162\participant_images\participant_Saivydas2_20250404_150355\stimuli_grids\Saivydas2_G9_T7_grid.png,,001,9,7,,,,,,,Saivydas2,001,True,
,,,,,7,,5.723176699997566,C:\Users\sv5g24\Desktop\Visual_Pareidolia_ERGO103162\participant_images\participant_Saivydas2_20250404_150355\stimuli_grids\Saivydas2_G9_T8_grid.png,,001,9,8,,,,,,,Saivydas2,001,True,
,,,,,4,,2.8499031999999715,C:\Users\sv5g24\Desktop\Visual_Pareidolia_ERGO103162\participant_images\participant_Saivydas2_20250404_150355\stimuli_grids\Saivydas2_G9_T9_grid.png,,001,9,9,,,,,,,Saivydas2,001,True,
,,,,,4,,0.98952780000036,C:\Users\sv5g24\Desktop\Visual_Pareidolia_ERGO103162\participant_images\participant_Saivydas2_20250404_150355\stimuli_grids\Saivydas2_G9_T10_grid.png,,001,9,10,,,,,,,Saivydas2,001,True,
,,,,,6,,4.36224890000085,C:\Users\sv5g24\Desktop\Visual_Pareidolia_ERGO103162\participant_images\participant_Saivydas2_20250404_150355\stimuli_grids\Saivydas2_G9_T11_grid.png,,001,9,11,,,,,,,Saivydas2,001,True,
,,,,,8,,1.8912149000025238,C:\Users\sv5g24\Desktop\Visual_Pareidolia_ERGO103162\participant_images\participant_Saivydas2_20250404_150355\stimuli_grids\Saivydas2_G10_T0_grid.png,,001,10,0,,,,,,,Saivydas2,001,True,
,,,,,1,,2.6733844999980647,C:\Users\sv5g24\Desktop\Visual_Pareidolia_ERGO103162\participant_images\participant_Saivydas2_20250404_150355\stimuli_grids\Saivydas2_G10_T1_grid.png,,001,10,1,,,,,,,Saivydas2,001,True,
,,,,,2,,3.4726897000000463,C:\Users\sv5g24\Desktop\Visual_Pareidolia_ERGO103162\participant_images\participant_Saivydas2_20250404_150355\stimuli_grids\Saivydas2_G10_T2_grid.png,,001,10,2,,,,,,,Saivydas2,001,True,
,,,,,8,,1.7199790999984543,C:\Users\sv5g24\Desktop\Visual_Pareidolia_ERGO103162\participant_images\participant_Saivydas2_20250404_150355\stimuli_grids\Saivydas2_G10_T3_grid.png,,001,10,3,,,,,,,Saivydas2,001,True,
,,,,,6,,2.87495200000194,C:\Users\sv5g24\Desktop\Visual_Pareidolia_ERGO103162\participant_images\participant_Saivydas2_20250404_150355\stimuli_grids\Saivydas2_G10_T4_grid.png,,001,10,4,,,,,,,Saivydas2,001,True,
,,,,,5,,3.5858554000005824,C:\Users\sv5g24\Desktop\Visual_Pareidolia_ERGO103162\participant_images\participant_Saivydas2_20250404_150355\stimuli_grids\Saivydas2_G10_T5_grid.png,,001,10,5,,,,,,,Saivydas2,001,True,
,,,,,5,,2.597238499998639,C:\Users\sv5g24\Desktop\Visual_Pareidolia_ERGO103162\participant_images\participant_Saivydas2_20250404_150355\stimuli_grids\Saivydas2_G10_T6_grid.png,,001,10,6,,,,,,,Saivydas2,001,True,
,,,,,9,,1.5563178000011249,C:\Users\sv5g24\Desktop\Visual_Pareidolia_ERGO103162\participant_images\participant_Saivydas2_20250404_150355\stimuli_grids\Saivydas2_G10_T7_grid.png,,001,10,7,,,,,,,Saivydas2,001,True,
,,,,,7,,1.584062999998423,C:\Users\sv5g24\Desktop\Visual_Pareidolia_ERGO103162\participant_images\participant_Saivydas2_20250404_150355\stimuli_grids\Saivydas2_G10_T8_grid.png,,001,10,8,,,,,,,Saivydas2,001,True,
,,,,,8,,5.0699225999997,C:\Users\sv5g24\Desktop\Visual_Pareidolia_ERGO103162\participant_images\participant_Saivydas2_20250404_150355\stimuli_grids\Saivydas2_G10_T9_grid.png,,001,10,9,,,,,,,Saivydas2,001,True,
,,,,,1,,6.402386300000217,C:\Users\sv5g24\Desktop\Visual_Pareidolia_ERGO103162\participant_images\participant_Saivydas2_20250404_150355\stimuli_grids\Saivydas2_G10_T10_grid.png,,001,10,10,,,,,,,Saivydas2,001,True,
,,,,,11,,3.4518972000005306,C:\Users\sv5g24\Desktop\Visual_Pareidolia_ERGO103162\participant_images\participant_Saivydas2_20250404_150355\stimuli_grids\Saivydas2_G10_T11_grid.png,,001,10,11,,,,,,,Saivydas2,001,True,
,,,,,7,,2.106230000001233,C:\Users\sv5g24\Desktop\Visual_Pareidolia_ERGO103162\participant_images\participant_Saivydas2_20250404_150355\stimuli_grids\Saivydas2_G11_T0_grid.png,,001,11,0,,,,,,,Saivydas2,001,True,
,,,,,4,,1.8418271000009554,C:\Users\sv5g24\Desktop\Visual_Pareidolia_ERGO103162\participant_images\participant_Saivydas2_20250404_150355\stimuli_grids\Saivydas2_G11_T1_grid.png,,001,11,1,,,,,,,Saivydas2,001,True,
,,,,,0,,6.124915800002782,C:\Users\sv5g24\Desktop\Visual_Pareidolia_ERGO103162\participant_images\participant_Saivydas2_20250404_150355\stimuli_grids\Saivydas2_G11_T2_grid.png,,001,11,2,,,,,,,Saivydas2,001,True,
,,,,,4,,1.7715811999987636,C:\Users\sv5g24\Desktop\Visual_Pareidolia_ERGO103162\participant_images\participant_Saivydas2_20250404_150355\stimuli_grids\Saivydas2_G11_T3_grid.png,,001,11,3,,,,,,,Saivydas2,001,True,
,,,,,5,,3.2487058000006073,C:\Users\sv5g24\Desktop\Visual_Pareidolia_ERGO103162\participant_images\participant_Saivydas2_20250404_150355\stimuli_grids\Saivydas2_G11_T4_grid.png,,001,11,4,,,,,,,Saivydas2,001,True,
,,,,,0,,3.0188567000004696,C:\Users\sv5g24\Desktop\Visual_Pareidolia_ERGO103162\participant_images\participant_Saivydas2_20250404_150355\stimuli_grids\Saivydas2_G11_T5_grid.png,,001,11,5,,,,,,,Saivydas2,001,True,
,,,,,4,,14.003219099999114,C:\Users\sv5g24\Desktop\Visual_Pareidolia_ERGO103162\participant_images\participant_Saivydas2_20250404_150355\stimuli_grids\Saivydas2_G11_T6_grid.png,,001,11,6,,,,,,,Saivydas2,001,True,
,,,,,2,,2.4222080999970785,C:\Users\sv5g24\Desktop\Visual_Pareidolia_ERGO103162\participant_images\participant_Saivydas2_20250404_150355\stimuli_grids\Saivydas2_G11_T7_grid.png,,001,11,7,,,,,,,Saivydas2,001,True,
,,,,,4,,3.854516200000944,C:\Users\sv5g24\Desktop\Visual_Pareidolia_ERGO103162\participant_images\participant_Saivydas2_20250404_150355\stimuli_grids\Saivydas2_G11_T8_grid.png,,001,11,8,,,,,,,Saivydas2,001,True,
,,,,,1,,1.8479341999991448,C:\Users\sv5g24\Desktop\Visual_Pareidolia_ERGO103162\participant_images\participant_Saivydas2_20250404_150355\stimuli_grids\Saivydas2_G11_T9_grid.png,,001,11,9,,,,,,,Saivydas2,001,True,
,,,,,11,,2.2703197000009823,C:\Users\sv5g24\Desktop\Visual_Pareidolia_ERGO103162\participant_images\participant_Saivydas2_20250404_150355\stimuli_grids\Saivydas2_G11_T10_grid.png,,001,11,10,,,,,,,Saivydas2,001,True,
,,,,,8,,1.9733998000010615,C:\Users\sv5g24\Desktop\Visual_Pareidolia_ERGO103162\participant_images\participant_Saivydas2_20250404_150355\stimuli_grids\Saivydas2_G11_T11_grid.png,,001,11,11,,,,,,,Saivydas2,001,True,
,,,,,,,,,,001,G6,,rating,high,P4739,S1,organised_by_imagery\high\P4739_S1_G6_composite.tiff,82.4074074074074,Saivydas2,001,True,
,,,,,,,,,,001,G2,,rating,mid,P12298,S2,organised_by_imagery\mid\P12298_S2_G2_composite.tiff,79.01234567901234,Saivydas2,001,True,
,,,,,,,,,,001,G2,,rating,low,P12682,S1,organised_by_imagery\low\P12682_S1_G2_composite.tiff,67.5925925925926,Saivydas2,001,True,
,,,,,,,,,,001,G2,,rating,mid,P12295,S2,organised_by_imagery\mid\P12295_S2_G2_composite.tiff,15.432098765432102,Saivydas2,001,True,
,,,,,,,,,,001,G6,,rating,mid,P13153,S2,organised_by_imagery\mid\P13153_S2_G6_composite.tiff,61.26543209876543,Saivydas2,001,True,
,,,,,,,,,,001,G2,,rating,mid,P13186,S2,organised_by_imagery\mid\P13186_S2_G2_composite.tiff,5.246913580246904,Saivydas2,001,True,
,,,,,,,,,,001,G2,,rating,high,P4739,S1,organised_by_imagery\high\P4739_S1_G2_composite.tiff,8.333333333333332,Saivydas2,001,True,
,,,,,,,,,,001,G6,,rating,mid,P12070,S1,organised_by_imagery\mid\P12070_S1_G6_composite.tiff,7.253086419753085,Saivydas2,001,True,
,,,,,,,,,,001,G2,,rating,low,P12028,S1,organised_by_imagery\low\P12028_S1_G2_composite.tiff,2.777777777777779,Saivydas2,001,True,
,,,,,,,,,,001,G2,,rating,high,P12574,S2,organised_by_imagery\high\P12574_S2_G2_composite.tiff,9.722222222222221,Saivydas2,001,True,
,,,,,,,,,,001,G6,,rating,low,P12028,S1,organised_by_imagery\low\P12028_S1_G6_composite.tiff,6.172839506172839,Saivydas2,001,True,
,,,,,,,,,,001,G6,,rating,mid,P12286,S2,organised_by_imagery\mid\P12286_S2_G6_composite.tiff,7.4074074074074066,Saivydas2,001,True,
,,,,,,,,,,001,G2,,rating,mid,P12286,S2,organised_by_imagery\mid\P12286_S2_G2_composite.tiff,82.87037037037037,Saivydas2,001,True,
,,,,,,,,,,001,G2,,rating,mid,P13597,S1,organised_by_imagery\mid\P13597_S1_G2_composite.tiff,4.32098765432099,Saivydas2,001,True,
,,,,,,,,,,001,G6,,rating,mid,P12295,S1,organised_by_imagery\mid\P12295_S1_G6_composite.tiff,3.7037037037037033,Saivydas2,001,True,
,,,,,,,,,,001,G6,,rating,low,P13336,S2,organised_by_imagery\low\P13336_S2_G6_composite.tiff,2.0061728395061706,Saivydas2,001,True,
,,,,,,,,,,001,G6,,rating,low,P13102,S1,organised_by_imagery\low\P13102_S1_G6_composite.tiff,4.32098765432099,Saivydas2,001,True,
,,,,,,,,,,001,G6,,rating,mid,P12298,S2,organised_by_imagery\mid\P12298_S2_G6_composite.tiff,12.962962962962965,Saivydas2,001,True,
,,,,,,,,,,001,G2,,rating,high,P11935,S2,organised_by_imagery\high\P11935_S2_G2_composite.tiff,5.864197530864196,Saivydas2,001,True,
,,,,,,,,,,001,G6,,rating,mid,P13186,S1,organised_by_imagery\mid\P13186_S1_G6_composite.tiff,3.2407407407407387,Saivydas2,001,True,
,,,,,,,,,,001,G2,,rating,low,P12028,S2,organised_by_imagery\low\P12028_S2_G2_composite.tiff,3.39506172839506,Saivydas2,001,True,
,,,,,,,,,,001,G6,,rating,mid,P13186,S2,organised_by_imagery\mid\P13186_S2_G6_composite.tiff,61.26543209876543,Saivydas2,001,True,
,,,,,,,,,,001,G2,,rating,mid,P13597,S2,organised_by_imagery\mid\P13597_S2_G2_composite.tiff,3.0864197530864224,Saivydas2,001,True,
,,,,,,,,,,001,G2,,rating,mid,P12070,S1,organised_by_imagery\mid\P12070_S1_G2_composite.tiff,57.407407407407405,Saivydas2,001,True,
,,,,,,,,,,001,G6,,rating,mid,P12295,S2,organised_by_imagery\mid\P12295_S2_G6_composite.tiff,68.05555555555556,Saivydas2,001,True,
,,,,,,,,,,001,G6,,rating,high,P11974,S1,organised_by_imagery\high\P11974_S1_G6_composite.tiff,5.0925925925925934,Saivydas2,001,True,
,,,,,,,,,,001,G2,,rating,mid,P12295,S1,organised_by_imagery\mid\P12295_S1_G2_composite.tiff,88.2716049382716,Saivydas2,001,True,
,,,,,,,,,,001,G2,,rating,low,P12682,S2,organised_by_imagery\low\P12682_S2_G2_composite.tiff,4.012345679012347,Saivydas2,001,True,
,,,,,,,,,,001,G6,,rating,low,P12682,S1,organised_by_imagery\low\P12682_S1_G6_composite.tiff,67.5925925925926,Saivydas2,001,True,
,,,,,,,,,,001,G2,,rating,mid,P12286,S1,organised_by_imagery\mid\P12286_S1_G2_composite.tiff,40.74074074074075,Saivydas2,001,True,
,,,,,,,,,,001,G6,,rating,high,P11935,S1,organised_by_imagery\high\P11935_S1_G6_composite.tiff,0.9259259259259245,Saivydas2,001,True,
,,,,,,,,,,001,G2,,rating,high,P4739,S2,organised_by_imagery\high\P4739_S2_G2_composite.tiff,93.5185185185185,Saivydas2,001,True,
,,,,,,,,,,001,G2,,rating,high,P11974,S2,organised_by_imagery\high\P11974_S2_G2_composite.tiff,5.709876543209874,Saivydas2,001,True,
,,,,,,,,,,001,G6,,rating,low,P13102,S2,organised_by_imagery\low\P13102_S2_G6_composite.tiff,90.4320987654321,Saivydas2,001,True,
,,,,,,,,,,001,G6,,rating,mid,P13153,S1,organised_by_imagery\mid\P13153_S1_G6_composite.tiff,39.96913580246913,Saivydas2,001,True,
,,,,,,,,,,001,G2,,rating,low,P13336,S1,organised_by_imagery\low\P13336_S1_G2_composite.tiff,62.65432098765432,Saivydas2,001,True,
,,,,,,,,,,001,G6,,rating,high,P12574,S1,organised_by_imagery\high\P12574_S1_G6_composite.tiff,6.481481481481483,Saivydas2,001,True,
,,,,,,,,,,001,G2,,rating,high,P11974,S1,organised_by_imagery\high\P11974_S1_G2_composite.tiff,58.64197530864197,Saivydas2,001,True,
,,,,,,,,,,001,G6,,rating,low,P12682,S2,organised_by_imagery\low\P12682_S2_G6_composite.tiff,67.43827160493827,Saivydas2,001,True,
,,,,,,,,,,001,G6,,rating,mid,P13597,S1,organised_by_imagery\mid\P13597_S1_G6_composite.tiff,38.73456790123457,Saivydas2,001,True,
,,,,,,,,,,001,G6,,rating,mid,P12298,S1,organised_by_imagery\mid\P12298_S1_G6_composite.tiff,4.629629629629628,Saivydas2,001,True,
,,,,,,,,,,001,G6,,rating,mid,P12286,S1,organised_by_imagery\mid\P12286_S1_G6_composite.tiff,4.783950617283949,Saivydas2,001,True,
,,,,,,,,,,001,G2,,rating,mid,P13186,S1,organised_by_imagery\mid\P13186_S1_G2_composite.tiff,3.8580246913580254,Saivydas2,001,True,
,,,,,,,,,,001,G6,,rating,low,P13336,S1,organised_by_imagery\low\P13336_S1_G6_composite.tiff,12.037037037037035,Saivydas2,001,True,
,,,,,,,,,,001,G2,,rating,high,P12574,S1,organised_by_imagery\high\P12574_S1_G2_composite.tiff,6.327160493827161,Saivydas2,001,True,
,,,,,,,,,,001,G2,,rating,mid,P12070,S2,organised_by_imagery\mid\P12070_S2_G2_composite.tiff,60.49382716049383,Saivydas2,001,True,
,,,,,,,,,,001,G2,,rating,mid,P13153,S1,organised_by_imagery\mid\P13153_S1_G2_composite.tiff,5.555555555555558,Saivydas2,001,True,
,,,,,,,,,,001,G2,,rating,high,P11935,S1,organised_by_imagery\high\P11935_S1_G2_composite.tiff,57.25308641975309,Saivydas2,001,True,
,,,,,,,,,,001,G6,,rating,mid,P13597,S2,organised_by_imagery\mid\P13597_S2_G6_composite.tiff,6.635802469135804,Saivydas2,001,True,
,,,,,,,,,,001,G2,,rating,mid,P13153,S2,organised_by_imagery\mid\P13153_S2_G2_composite.tiff,56.17283950617284,Saivydas2,001,True,
,,,,,,,,,,001,G2,,rating,mid,P12298,S1,organised_by_imagery\mid\P12298_S1_G2_composite.tiff,7.561728395061729,Saivydas2,001,True,
,,,,,,,,,,001,G2,,rating,low,P13336,S2,organised_by_imagery\low\P13336_S2_G2_composite.tiff,59.5679012345679,Saivydas2,001,True,
,,,,,,,,,,001,G6,,rating,high,P11935,S2,organised_by_imagery\high\P11935_S2_G6_composite.tiff,1.6975308641975329,Saivydas2,001,True,
,,,,,,,,,,001,G6,,rating,mid,P12070,S2,organised_by_imagery\mid\P12070_S2_G6_composite.tiff,57.407407407407405,Saivydas2,001,True,
,,,,,,,,,,001,G6,,rating,low,P12028,S2,organised_by_imagery\low\P12028_S2_G6_composite.tiff,5.0925925925925934,Saivydas2,001,True,
,,,,,,,,,,001,G6,,rating,high,P12574,S2,organised_by_imagery\high\P12574_S2_G6_composite.tiff,56.79012345679012,Saivydas2,001,True,
,,,,,,,,,,001,G2,,rating,low,P13102,S1,organised_by_imagery\low\P13102_S1_G2_composite.tiff,89.81481481481481,Saivydas2,001,True,
,,,,,,,,,,001,G2,,rating,low,P13102,S2,organised_by_imagery\low\P13102_S2_G2_composite.tiff,31.17283950617284,Saivydas2,001,True,
,,,,,,,,,,001,G6,,rating,high,P4739,S2,organised_by_imagery\high\P4739_S2_G6_composite.tiff,92.43827160493827,Saivydas2,001,True,
,,,,,,,,,,001,G6,,rating,high,P11974,S2,organised_by_imagery\high\P11974_S2_G6_composite.tiff,64.50617283950618,Saivydas2,001,True,
